"subject","age","gender","education","condition","impostor","trial_number","item_number","response_block","slow","load_acc","to_exclude","conflict","resp_cat","accuracy","RT","conf"
"4_1","22",2,3,"SFS","strong",1,3,"Slow",NA,NA,0,"NC",1,1,28.209,70
"4_1","22",2,3,"SFS","strong",2,16,"Slow",NA,NA,0,"C",3,1,12.187,70
"4_1","22",2,3,"SFS","strong",3,1,"Slow",NA,NA,0,"C",3,1,8.686,70
"4_1","22",2,3,"SFS","strong",4,17,"Slow",NA,NA,0,"NC",1,1,4.001,100
"4_1","22",2,3,"SFS","strong",5,4,"Slow",NA,NA,0,"NC",1,1,9.67,90
"4_1","22",2,3,"SFS","strong",6,11,"Slow",NA,NA,0,"C",4,0,12.003,100
"4_1","22",2,3,"SFS","strong",7,7,"Slow",NA,NA,0,"NC",1,1,5.051,100
"4_1","22",2,3,"SFS","strong",8,19,"Slow",NA,NA,0,"NC",1,1,7.385,100
"4_1","22",2,3,"SFS","strong",9,5,"Slow",NA,NA,0,"C",3,1,7.052,100
"4_1","22",2,3,"SFS","strong",10,6,"Slow",NA,NA,0,"C",3,1,9.319,100
"4_1","22",2,3,"SFS","strong",11,10,"Fast",0,0,1,"NC",2,0,4.602,70
"4_1","22",2,3,"SFS","strong",12,12,"Fast",0,0,1,"NC",1,1,3.001,100
"4_1","22",2,3,"SFS","strong",13,14,"Fast",0,1,0,"C",1,0,3.002,100
"4_1","22",2,3,"SFS","strong",14,2,"Fast",0,1,0,"NC",1,1,3.384,80
"4_1","22",2,3,"SFS","strong",15,20,"Fast",0,0,1,"NC",1,1,4.469,100
"4_1","22",2,3,"SFS","strong",16,13,"Fast",0,1,0,"C",1,0,2.933,100
"4_1","22",2,3,"SFS","strong",17,18,"Fast",1,1,1,"C",NA,0,5.036,NA
"4_1","22",2,3,"SFS","strong",18,8,"Fast",0,1,0,"C",1,0,2.634,100
"4_1","22",2,3,"SFS","strong",19,15,"Fast",0,1,0,"C",1,0,2.167,100
"4_1","22",2,3,"SFS","strong",20,9,"Fast",0,1,0,"NC",1,1,2.934,100
"4_2","32",2,3,"SFW","weak",1,9,"Slow",NA,NA,0,"C",3,1,5.543,100
"4_2","32",2,3,"SFW","weak",2,19,"Slow",NA,NA,0,"C",3,1,10.61,100
"4_2","32",2,3,"SFW","weak",3,14,"Slow",NA,NA,0,"NC",1,1,2.735,100
"4_2","32",2,3,"SFW","weak",4,12,"Slow",NA,NA,0,"NC",1,1,5.366,100
"4_2","32",2,3,"SFW","weak",5,4,"Slow",NA,NA,0,"NC",1,1,4.801,90
"4_2","32",2,3,"SFW","weak",6,15,"Slow",NA,NA,0,"NC",1,1,6.806,100
"4_2","32",2,3,"SFW","weak",7,3,"Slow",NA,NA,0,"NC",1,1,6.728,100
"4_2","32",2,3,"SFW","weak",8,20,"Slow",NA,NA,0,"C",1,0,3.076,100
"4_2","32",2,3,"SFW","weak",9,16,"Slow",NA,NA,0,"C",3,1,5.057,100
"4_2","32",2,3,"SFW","weak",10,6,"Slow",NA,NA,0,"C",1,0,4.038,90
"4_2","32",2,3,"SFW","weak",11,13,"Fast",0,1,0,"NC",1,1,2.28,100
"4_2","32",2,3,"SFW","weak",12,7,"Fast",0,1,0,"NC",1,1,2.691,100
"4_2","32",2,3,"SFW","weak",13,5,"Fast",0,1,0,"NC",1,1,4.757,100
"4_2","32",2,3,"SFW","weak",14,18,"Fast",0,1,0,"C",3,1,2.098,100
"4_2","32",2,3,"SFW","weak",15,11,"Fast",0,0,1,"NC",1,1,3.803,100
"4_2","32",2,3,"SFW","weak",16,1,"Fast",0,1,0,"C",3,1,4.385,90
"4_2","32",2,3,"SFW","weak",17,10,"Fast",1,1,1,"C",NA,1,5.07,NA
"4_2","32",2,3,"SFW","weak",18,2,"Fast",0,0,1,"C",3,1,3.065,100
"4_2","32",2,3,"SFW","weak",19,17,"Fast",0,1,0,"C",1,0,2.324,100
"4_2","32",2,3,"SFW","weak",20,8,"Fast",0,1,0,"NC",1,1,2.408,100
"4_3","30",1,3,"FSW","weak",1,6,"Fast",0,1,0,"NC",1,1,3.289,100
"4_3","30",1,3,"FSW","weak",2,3,"Fast",0,1,0,"C",1,0,1.946,100
"4_3","30",1,3,"FSW","weak",3,19,"Fast",0,1,0,"NC",3,0,4.689,80
"4_3","30",1,3,"FSW","weak",4,8,"Fast",0,1,0,"C",1,0,1.266,100
"4_3","30",1,3,"FSW","weak",5,4,"Fast",0,1,0,"NC",1,1,2.078,100
"4_3","30",1,3,"FSW","weak",6,5,"Fast",1,1,1,"NC",NA,1,5.017,NA
"4_3","30",1,3,"FSW","weak",7,16,"Fast",0,1,0,"C",1,0,1.687,80
"4_3","30",1,3,"FSW","weak",8,18,"Fast",0,1,0,"C",3,1,3.52,100
"4_3","30",1,3,"FSW","weak",9,17,"Fast",0,1,0,"NC",1,1,3.667,60
"4_3","30",1,3,"FSW","weak",10,2,"Fast",0,1,0,"C",3,1,3.785,100
"4_3","30",1,3,"FSW","weak",11,15,"Slow",NA,NA,0,"NC",1,1,3.155,100
"4_3","30",1,3,"FSW","weak",12,14,"Slow",NA,NA,0,"C",3,1,7.193,80
"4_3","30",1,3,"FSW","weak",13,10,"Slow",NA,NA,0,"C",3,1,14.84,100
"4_3","30",1,3,"FSW","weak",14,12,"Slow",NA,NA,0,"C",3,1,5.241,100
"4_3","30",1,3,"FSW","weak",15,9,"Slow",NA,NA,0,"NC",1,1,4.051,100
"4_3","30",1,3,"FSW","weak",16,13,"Slow",NA,NA,0,"C",1,0,2.491,100
"4_3","30",1,3,"FSW","weak",17,7,"Slow",NA,NA,0,"C",3,1,3.443,100
"4_3","30",1,3,"FSW","weak",18,20,"Slow",NA,NA,0,"NC",3,0,2.358,80
"4_3","30",1,3,"FSW","weak",19,11,"Slow",NA,NA,0,"NC",3,0,2.785,100
"4_3","30",1,3,"FSW","weak",20,1,"Slow",NA,NA,0,"NC",4,0,7.774,80
"4_4","21",1,2,"SFS","strong",1,14,"Slow",NA,NA,0,"C",1,0,7.706,90
"4_4","21",1,2,"SFS","strong",2,18,"Slow",NA,NA,0,"NC",4,0,9.735,0
"4_4","21",1,2,"SFS","strong",3,7,"Slow",NA,NA,0,"C",1,0,18.452,80
"4_4","21",1,2,"SFS","strong",4,20,"Slow",NA,NA,0,"NC",4,0,7.741,0
"4_4","21",1,2,"SFS","strong",5,17,"Slow",NA,NA,0,"C",1,0,8.759,100
"4_4","21",1,2,"SFS","strong",6,19,"Slow",NA,NA,0,"C",1,0,5.942,100
"4_4","21",1,2,"SFS","strong",7,16,"Slow",NA,NA,0,"C",2,0,7.129,60
"4_4","21",1,2,"SFS","strong",8,3,"Slow",NA,NA,0,"NC",4,0,4.059,60
"4_4","21",1,2,"SFS","strong",9,4,"Slow",NA,NA,0,"NC",1,1,6.7,20
"4_4","21",1,2,"SFS","strong",10,6,"Slow",NA,NA,0,"NC",1,1,3.67,80
"4_4","21",1,2,"SFS","strong",11,8,"Fast",0,0,1,"NC",1,1,1.759,80
"4_4","21",1,2,"SFS","strong",12,1,"Fast",0,1,0,"NC",2,0,1.613,90
"4_4","21",1,2,"SFS","strong",13,12,"Fast",0,1,0,"NC",2,0,1.806,20
"4_4","21",1,2,"SFS","strong",14,9,"Fast",0,1,0,"C",2,0,2.083,0
"4_4","21",1,2,"SFS","strong",15,10,"Fast",0,1,0,"C",1,0,2.236,60
"4_4","21",1,2,"SFS","strong",16,2,"Fast",0,1,0,"C",4,0,2.965,0
"4_4","21",1,2,"SFS","strong",17,13,"Fast",0,1,0,"NC",1,1,1.729,100
"4_4","21",1,2,"SFS","strong",18,15,"Fast",0,1,0,"C",1,0,1.671,100
"4_4","21",1,2,"SFS","strong",19,11,"Fast",0,1,0,"C",1,0,3.112,100
"4_4","21",1,2,"SFS","strong",20,5,"Fast",0,1,0,"NC",1,1,2.578,30
"4_5","39",2,3,"FSS","strong",1,6,"Fast",0,1,0,"C",1,0,4.44,50
"4_5","39",2,3,"FSS","strong",2,5,"Fast",0,0,1,"NC",1,1,4.29,40
"4_5","39",2,3,"FSS","strong",3,8,"Fast",0,1,0,"C",2,0,4.091,0
"4_5","39",2,3,"FSS","strong",4,4,"Fast",0,0,1,"C",1,0,4.058,99
"4_5","39",2,3,"FSS","strong",5,20,"Fast",0,1,0,"NC",1,1,3.243,100
"4_5","39",2,3,"FSS","strong",6,3,"Fast",0,1,0,"C",1,0,2.743,100
"4_5","39",2,3,"FSS","strong",7,17,"Fast",0,1,0,"NC",1,1,3.276,100
"4_5","39",2,3,"FSS","strong",8,9,"Fast",1,0,1,"NC",NA,1,5.038,NA
"4_5","39",2,3,"FSS","strong",9,18,"Fast",0,1,0,"C",1,0,3.958,50
"4_5","39",2,3,"FSS","strong",10,11,"Fast",0,1,0,"NC",1,1,3.575,60
"4_5","39",2,3,"FSS","strong",11,1,"Slow",NA,NA,0,"NC",1,1,2.743,100
"4_5","39",2,3,"FSS","strong",12,10,"Slow",NA,NA,0,"NC",1,1,4.273,100
"4_5","39",2,3,"FSS","strong",13,7,"Slow",NA,NA,0,"C",3,1,8.231,50
"4_5","39",2,3,"FSS","strong",14,14,"Slow",NA,NA,0,"C",1,0,9.977,60
"4_5","39",2,3,"FSS","strong",15,19,"Slow",NA,NA,0,"NC",1,1,5.422,100
"4_5","39",2,3,"FSS","strong",16,2,"Slow",NA,NA,0,"C",4,0,6.97,100
"4_5","39",2,3,"FSS","strong",17,13,"Slow",NA,NA,0,"NC",1,1,14.466,50
"4_5","39",2,3,"FSS","strong",18,16,"Slow",NA,NA,0,"C",1,0,3.658,100
"4_5","39",2,3,"FSS","strong",19,15,"Slow",NA,NA,0,"C",1,0,6.069,100
"4_5","39",2,3,"FSS","strong",20,12,"Slow",NA,NA,0,"NC",1,1,3.573,100
"4_6","33",2,3,"SFW","weak",1,14,"Slow",NA,NA,0,"C",1,0,4.883,100
"4_6","33",2,3,"SFW","weak",2,19,"Slow",NA,NA,0,"C",2,0,4.567,70
"4_6","33",2,3,"SFW","weak",3,12,"Slow",NA,NA,0,"C",1,0,2.617,10
"4_6","33",2,3,"SFW","weak",4,15,"Slow",NA,NA,0,"C",1,0,3.405,100
"4_6","33",2,3,"SFW","weak",5,11,"Slow",NA,NA,0,"NC",1,1,4.967,100
"4_6","33",2,3,"SFW","weak",6,6,"Slow",NA,NA,0,"NC",1,1,4.4,100
"4_6","33",2,3,"SFW","weak",7,4,"Slow",NA,NA,0,"NC",1,1,3.317,99
"4_6","33",2,3,"SFW","weak",8,13,"Slow",NA,NA,0,"NC",1,1,3.932,85
"4_6","33",2,3,"SFW","weak",9,17,"Slow",NA,NA,0,"C",3,1,4.709,99
"4_6","33",2,3,"SFW","weak",10,18,"Slow",NA,NA,0,"NC",1,1,5.871,95
"4_6","33",2,3,"SFW","weak",11,7,"Fast",0,1,0,"C",1,0,4.083,95
"4_6","33",2,3,"SFW","weak",12,9,"Fast",0,1,0,"NC",1,1,2.817,95
"4_6","33",2,3,"SFW","weak",13,3,"Fast",0,1,0,"NC",1,1,2.283,100
"4_6","33",2,3,"SFW","weak",14,2,"Fast",0,1,0,"C",3,1,4.037,90
"4_6","33",2,3,"SFW","weak",15,10,"Fast",0,1,0,"NC",1,1,4.133,90
"4_6","33",2,3,"SFW","weak",16,5,"Fast",0,1,0,"C",3,1,3.651,100
"4_6","33",2,3,"SFW","weak",17,1,"Fast",0,1,0,"NC",3,0,3.919,90
"4_6","33",2,3,"SFW","weak",18,8,"Fast",0,1,0,"NC",1,1,4.733,99
"4_6","33",2,3,"SFW","weak",19,20,"Fast",0,1,0,"C",3,1,3.086,100
"4_6","33",2,3,"SFW","weak",20,16,"Fast",0,1,0,"C",3,1,3.95,100
"4_7","31",2,3,"SFS","strong",1,6,"Slow",NA,NA,0,"C",1,0,3.536,100
"4_7","31",2,3,"SFS","strong",2,5,"Slow",NA,NA,0,"C",1,0,2.269,100
"4_7","31",2,3,"SFS","strong",3,9,"Slow",NA,NA,0,"NC",1,1,3.117,100
"4_7","31",2,3,"SFS","strong",4,16,"Slow",NA,NA,0,"NC",1,1,2.782,100
"4_7","31",2,3,"SFS","strong",5,20,"Slow",NA,NA,0,"C",1,0,3.517,90
"4_7","31",2,3,"SFS","strong",6,4,"Slow",NA,NA,0,"NC",1,1,2.997,50
"4_7","31",2,3,"SFS","strong",7,14,"Slow",NA,NA,0,"C",1,0,3.1,100
"4_7","31",2,3,"SFS","strong",8,17,"Slow",NA,NA,0,"C",3,1,5.05,100
"4_7","31",2,3,"SFS","strong",9,10,"Slow",NA,NA,0,"NC",1,1,12,50
"4_7","31",2,3,"SFS","strong",10,8,"Slow",NA,NA,0,"NC",1,1,2.417,100
"4_7","31",2,3,"SFS","strong",11,12,"Fast",0,1,0,"C",1,0,3.917,50
"4_7","31",2,3,"SFS","strong",12,3,"Fast",0,1,0,"NC",1,1,2.597,100
"4_7","31",2,3,"SFS","strong",13,19,"Fast",0,1,0,"NC",1,1,4.8,100
"4_7","31",2,3,"SFS","strong",14,13,"Fast",0,1,0,"NC",1,1,2.218,100
"4_7","31",2,3,"SFS","strong",15,18,"Fast",0,1,0,"C",1,0,3.785,50
"4_7","31",2,3,"SFS","strong",16,2,"Fast",0,0,1,"NC",1,1,3.318,50
"4_7","31",2,3,"SFS","strong",17,7,"Fast",1,1,1,"C",NA,1,5.068,NA
"4_7","31",2,3,"SFS","strong",18,1,"Fast",0,1,0,"C",3,1,4.185,50
"4_7","31",2,3,"SFS","strong",19,15,"Fast",0,1,0,"C",1,0,2.248,0
"4_7","31",2,3,"SFS","strong",20,11,"Fast",0,1,0,"NC",1,1,3.301,60
"4_8","47",1,5,"FSS","strong",1,13,"Fast",0,1,0,"NC",1,1,2.168,100
"4_8","47",1,5,"FSS","strong",2,5,"Fast",0,1,0,"C",1,0,3.75,100
"4_8","47",1,5,"FSS","strong",3,3,"Fast",0,1,0,"NC",1,1,3.083,100
"4_8","47",1,5,"FSS","strong",4,12,"Fast",0,1,0,"NC",1,1,2.538,100
"4_8","47",1,5,"FSS","strong",5,14,"Fast",0,1,0,"NC",1,1,3.516,100
"4_8","47",1,5,"FSS","strong",6,2,"Fast",0,0,1,"C",1,0,3.333,100
"4_8","47",1,5,"FSS","strong",7,1,"Fast",0,0,1,"C",3,1,4.189,100
"4_8","47",1,5,"FSS","strong",8,16,"Fast",0,1,0,"NC",1,1,2.067,100
"4_8","47",1,5,"FSS","strong",9,20,"Fast",0,1,0,"C",1,0,2.634,100
"4_8","47",1,5,"FSS","strong",10,8,"Fast",0,1,0,"C",1,0,4.817,100
"4_8","47",1,5,"FSS","strong",11,17,"Slow",NA,NA,0,"C",3,1,4.151,100
"4_8","47",1,5,"FSS","strong",12,11,"Slow",NA,NA,0,"C",1,0,6.519,100
"4_8","47",1,5,"FSS","strong",13,7,"Slow",NA,NA,0,"NC",1,1,2.468,100
"4_8","47",1,5,"FSS","strong",14,9,"Slow",NA,NA,0,"C",1,0,4.085,100
"4_8","47",1,5,"FSS","strong",15,19,"Slow",NA,NA,0,"NC",1,1,4.217,100
"4_8","47",1,5,"FSS","strong",16,4,"Slow",NA,NA,0,"NC",1,1,3.333,100
"4_8","47",1,5,"FSS","strong",17,15,"Slow",NA,NA,0,"NC",1,1,5.02,100
"4_8","47",1,5,"FSS","strong",18,6,"Slow",NA,NA,0,"C",3,1,7.933,100
"4_8","47",1,5,"FSS","strong",19,10,"Slow",NA,NA,0,"NC",1,1,4.6,100
"4_8","47",1,5,"FSS","strong",20,18,"Slow",NA,NA,0,"C",3,1,3.883,100
"4_9","53",1,3,"SFW","weak",1,18,"Slow",NA,NA,0,"NC",1,1,7.263,100
"4_9","53",1,3,"SFW","weak",2,1,"Slow",NA,NA,0,"NC",1,1,3.131,100
"4_9","53",1,3,"SFW","weak",3,12,"Slow",NA,NA,0,"NC",1,1,2.666,100
"4_9","53",1,3,"SFW","weak",4,11,"Slow",NA,NA,0,"C",3,1,10.029,100
"4_9","53",1,3,"SFW","weak",5,6,"Slow",NA,NA,0,"NC",1,1,4.631,100
"4_9","53",1,3,"SFW","weak",6,2,"Slow",NA,NA,0,"C",3,1,4.764,100
"4_9","53",1,3,"SFW","weak",7,13,"Slow",NA,NA,0,"NC",1,1,4.498,100
"4_9","53",1,3,"SFW","weak",8,14,"Slow",NA,NA,0,"C",3,1,2.699,100
"4_9","53",1,3,"SFW","weak",9,20,"Slow",NA,NA,0,"C",3,1,6.564,100
"4_9","53",1,3,"SFW","weak",10,19,"Slow",NA,NA,0,"C",3,1,6.047,100
"4_9","53",1,3,"SFW","weak",11,4,"Fast",0,1,0,"C",3,1,3.715,100
"4_9","53",1,3,"SFW","weak",12,9,"Fast",0,1,0,"NC",1,1,2.831,100
"4_9","53",1,3,"SFW","weak",13,16,"Fast",0,1,0,"C",3,1,3.914,100
"4_9","53",1,3,"SFW","weak",14,10,"Fast",0,1,0,"C",3,1,4.748,100
"4_9","53",1,3,"SFW","weak",15,7,"Fast",0,1,0,"NC",1,1,3.299,100
"4_9","53",1,3,"SFW","weak",16,3,"Fast",0,1,0,"NC",1,1,2.965,100
"4_9","53",1,3,"SFW","weak",17,5,"Fast",0,1,0,"NC",1,1,3.432,100
"4_9","53",1,3,"SFW","weak",18,15,"Fast",0,1,0,"C",3,1,3.932,100
"4_9","53",1,3,"SFW","weak",19,17,"Fast",0,1,0,"C",3,1,2.732,100
"4_9","53",1,3,"SFW","weak",20,8,"Fast",0,1,0,"NC",1,1,2.765,100
"4_10","24",2,4,"SFW","weak",1,4,"Slow",NA,NA,0,"C",3,1,7.932,100
"4_10","24",2,4,"SFW","weak",2,11,"Slow",NA,NA,0,"NC",1,1,2.819,100
"4_10","24",2,4,"SFW","weak",3,16,"Slow",NA,NA,0,"C",3,1,4.883,100
"4_10","24",2,4,"SFW","weak",4,18,"Slow",NA,NA,0,"NC",1,1,4.285,50
"4_10","24",2,4,"SFW","weak",5,12,"Slow",NA,NA,0,"NC",1,1,2.534,100
"4_10","24",2,4,"SFW","weak",6,20,"Slow",NA,NA,0,"NC",1,1,1.651,100
"4_10","24",2,4,"SFW","weak",7,7,"Slow",NA,NA,0,"C",1,0,2.567,100
"4_10","24",2,4,"SFW","weak",8,17,"Slow",NA,NA,0,"C",3,1,4.848,100
"4_10","24",2,4,"SFW","weak",9,8,"Slow",NA,NA,0,"NC",1,1,2.952,100
"4_10","24",2,4,"SFW","weak",10,2,"Slow",NA,NA,0,"C",3,1,2.317,100
"4_10","24",2,4,"SFW","weak",11,10,"Fast",0,1,0,"NC",2,0,2.25,50
"4_10","24",2,4,"SFW","weak",12,9,"Fast",0,1,0,"NC",1,1,2.349,100
"4_10","24",2,4,"SFW","weak",13,19,"Fast",0,1,0,"NC",1,1,2.4,100
"4_10","24",2,4,"SFW","weak",14,15,"Fast",0,1,0,"C",1,0,2.186,100
"4_10","24",2,4,"SFW","weak",15,6,"Fast",0,1,0,"C",3,1,4.116,100
"4_10","24",2,4,"SFW","weak",16,5,"Fast",0,1,0,"C",1,0,2.467,100
"4_10","24",2,4,"SFW","weak",17,13,"Fast",0,1,0,"NC",1,1,1.914,100
"4_10","24",2,4,"SFW","weak",18,3,"Fast",0,1,0,"NC",1,1,2.185,100
"4_10","24",2,4,"SFW","weak",19,1,"Fast",0,1,0,"C",3,1,2.4,100
"4_10","24",2,4,"SFW","weak",20,14,"Fast",0,0,1,"C",1,0,2.233,100
"4_11","27",1,3,"FSW","weak",1,16,"Fast",1,1,1,"C",NA,0,5.043,NA
"4_11","27",1,3,"FSW","weak",2,11,"Fast",0,1,0,"C",1,0,2.886,100
"4_11","27",1,3,"FSW","weak",3,7,"Fast",0,1,0,"NC",1,1,4.619,100
"4_11","27",1,3,"FSW","weak",4,5,"Fast",0,1,0,"C",3,1,4.073,100
"4_11","27",1,3,"FSW","weak",5,12,"Fast",0,1,0,"NC",1,1,3.069,100
"4_11","27",1,3,"FSW","weak",6,15,"Fast",0,1,0,"C",1,0,2.92,100
"4_11","27",1,3,"FSW","weak",7,13,"Fast",0,1,0,"NC",1,1,1.817,100
"4_11","27",1,3,"FSW","weak",8,14,"Fast",0,1,0,"NC",1,1,2.677,100
"4_11","27",1,3,"FSW","weak",9,19,"Fast",0,1,0,"NC",1,1,1.969,100
"4_11","27",1,3,"FSW","weak",10,9,"Fast",0,1,0,"C",1,0,3.204,100
"4_11","27",1,3,"FSW","weak",11,17,"Slow",NA,NA,0,"C",1,0,4.319,100
"4_11","27",1,3,"FSW","weak",12,2,"Slow",NA,NA,0,"NC",1,1,4.502,100
"4_11","27",1,3,"FSW","weak",13,8,"Slow",NA,NA,0,"NC",1,1,4.302,100
"4_11","27",1,3,"FSW","weak",14,4,"Slow",NA,NA,0,"C",3,1,3.984,100
"4_11","27",1,3,"FSW","weak",15,1,"Slow",NA,NA,0,"C",3,1,4.471,100
"4_11","27",1,3,"FSW","weak",16,20,"Slow",NA,NA,0,"NC",1,1,2.657,100
"4_11","27",1,3,"FSW","weak",17,3,"Slow",NA,NA,0,"C",3,1,6.361,100
"4_11","27",1,3,"FSW","weak",18,6,"Slow",NA,NA,0,"NC",1,1,3.952,100
"4_11","27",1,3,"FSW","weak",19,18,"Slow",NA,NA,0,"C",3,1,4.416,100
"4_11","27",1,3,"FSW","weak",20,10,"Slow",NA,NA,0,"NC",1,1,7.168,100
"4_12","33",2,4,"SFS","strong",1,4,"Slow",NA,NA,0,"C",2,0,7.026,50
"4_12","33",2,4,"SFS","strong",2,1,"Slow",NA,NA,0,"NC",4,0,6.194,100
"4_12","33",2,4,"SFS","strong",3,16,"Slow",NA,NA,0,"NC",1,1,3.598,100
"4_12","33",2,4,"SFS","strong",4,11,"Slow",NA,NA,0,"NC",2,0,12.62,50
"4_12","33",2,4,"SFS","strong",5,3,"Slow",NA,NA,0,"C",3,1,11.888,100
"4_12","33",2,4,"SFS","strong",6,7,"Slow",NA,NA,0,"C",3,1,8.044,100
"4_12","33",2,4,"SFS","strong",7,17,"Slow",NA,NA,0,"NC",1,1,3.463,100
"4_12","33",2,4,"SFS","strong",8,19,"Slow",NA,NA,0,"C",1,0,3.462,100
"4_12","33",2,4,"SFS","strong",9,14,"Slow",NA,NA,0,"NC",1,1,3.28,100
"4_12","33",2,4,"SFS","strong",10,2,"Slow",NA,NA,0,"C",3,1,5.395,100
"4_12","33",2,4,"SFS","strong",11,18,"Fast",0,0,1,"NC",1,1,5.012,50
"4_12","33",2,4,"SFS","strong",12,15,"Fast",0,1,0,"NC",1,1,4.962,100
"4_12","33",2,4,"SFS","strong",13,6,"Fast",1,0,1,"C",NA,1,5.028,NA
"4_12","33",2,4,"SFS","strong",14,9,"Fast",0,1,0,"C",1,0,3.946,100
"4_12","33",2,4,"SFS","strong",15,12,"Fast",0,1,0,"NC",1,1,2.931,100
"4_12","33",2,4,"SFS","strong",16,5,"Fast",0,1,0,"C",2,0,2.763,50
"4_12","33",2,4,"SFS","strong",17,8,"Fast",0,0,1,"C",1,0,3.746,50
"4_12","33",2,4,"SFS","strong",18,20,"Fast",0,0,1,"NC",1,1,2.647,100
"4_12","33",2,4,"SFS","strong",19,13,"Fast",0,0,1,"NC",1,1,3.729,100
"4_12","33",2,4,"SFS","strong",20,10,"Fast",0,0,1,"C",1,0,2.948,100
"4_13","60",1,4,"SFS","strong",1,5,"Slow",NA,NA,0,"NC",1,1,2.976,100
"4_13","60",1,4,"SFS","strong",2,7,"Slow",NA,NA,0,"NC",1,1,2.962,100
"4_13","60",1,4,"SFS","strong",3,3,"Slow",NA,NA,0,"NC",1,1,3.424,100
"4_13","60",1,4,"SFS","strong",4,13,"Slow",NA,NA,0,"NC",1,1,5.616,50
"4_13","60",1,4,"SFS","strong",5,4,"Slow",NA,NA,0,"C",3,1,4.018,100
"4_13","60",1,4,"SFS","strong",6,19,"Slow",NA,NA,0,"C",4,0,8.503,NA
"4_13","60",1,4,"SFS","strong",7,11,"Slow",NA,NA,0,"C",1,0,4.557,100
"4_13","60",1,4,"SFS","strong",8,8,"Slow",NA,NA,0,"C",1,0,4.693,100
"4_13","60",1,4,"SFS","strong",9,10,"Slow",NA,NA,0,"NC",1,1,4.098,100
"4_13","60",1,4,"SFS","strong",10,12,"Slow",NA,NA,0,"C",1,0,3.449,100
"4_13","60",1,4,"SFS","strong",11,6,"Fast",0,0,1,"NC",1,1,3.538,100
"4_13","60",1,4,"SFS","strong",12,20,"Fast",0,1,0,"NC",1,1,2.076,100
"4_13","60",1,4,"SFS","strong",13,2,"Fast",0,1,0,"C",1,0,4.32,50
"4_13","60",1,4,"SFS","strong",14,18,"Fast",0,1,0,"C",1,0,4.3,100
"4_13","60",1,4,"SFS","strong",15,14,"Fast",0,1,0,"NC",1,1,2.864,100
"4_13","60",1,4,"SFS","strong",16,16,"Fast",0,0,1,"C",3,1,3.963,100
"4_13","60",1,4,"SFS","strong",17,1,"Fast",0,1,0,"NC",1,1,2.797,100
"4_13","60",1,4,"SFS","strong",18,17,"Fast",0,1,0,"NC",1,1,2.951,100
"4_13","60",1,4,"SFS","strong",19,9,"Fast",1,1,1,"C",NA,1,5.017,NA
"4_13","60",1,4,"SFS","strong",20,15,"Fast",0,1,0,"C",3,1,3.178,100
"4_14","28",2,3,"SFW","weak",1,19,"Slow",NA,NA,0,"NC",1,1,5.779,100
"4_14","28",2,3,"SFW","weak",2,12,"Slow",NA,NA,0,"NC",1,1,7.011,100
"4_14","28",2,3,"SFW","weak",3,8,"Slow",NA,NA,0,"C",4,0,16.586,100
"4_14","28",2,3,"SFW","weak",4,16,"Slow",NA,NA,0,"C",3,1,7.527,100
"4_14","28",2,3,"SFW","weak",5,2,"Slow",NA,NA,0,"NC",1,1,3.98,100
"4_14","28",2,3,"SFW","weak",6,10,"Slow",NA,NA,0,"C",4,0,5.546,100
"4_14","28",2,3,"SFW","weak",7,5,"Slow",NA,NA,0,"NC",1,1,5.18,100
"4_14","28",2,3,"SFW","weak",8,6,"Slow",NA,NA,0,"C",3,1,9.075,100
"4_14","28",2,3,"SFW","weak",9,4,"Slow",NA,NA,0,"C",4,0,3.847,100
"4_14","28",2,3,"SFW","weak",10,20,"Slow",NA,NA,0,"NC",1,1,3.564,100
"4_14","28",2,3,"SFW","weak",11,13,"Fast",0,1,0,"C",1,0,4.231,100
"4_14","28",2,3,"SFW","weak",12,11,"Fast",0,1,0,"NC",2,0,4.714,NA
"4_14","28",2,3,"SFW","weak",13,18,"Fast",0,0,1,"NC",4,0,4.197,100
"4_14","28",2,3,"SFW","weak",14,15,"Fast",0,1,0,"NC",1,1,4.58,100
"4_14","28",2,3,"SFW","weak",15,7,"Fast",0,1,0,"C",1,0,3.596,100
"4_14","28",2,3,"SFW","weak",16,3,"Fast",0,1,0,"C",4,0,3.13,100
"4_14","28",2,3,"SFW","weak",17,1,"Fast",0,1,0,"NC",1,1,3.148,100
"4_14","28",2,3,"SFW","weak",18,14,"Fast",0,1,0,"C",1,0,3.697,100
"4_14","28",2,3,"SFW","weak",19,9,"Fast",0,1,0,"NC",1,1,4.58,100
"4_14","28",2,3,"SFW","weak",20,17,"Fast",0,1,0,"C",2,0,5.196,50
"4_15","29",2,2,"FSS","strong",1,20,"Fast",0,1,0,"NC",1,1,3.282,100
"4_15","29",2,2,"FSS","strong",2,15,"Fast",0,1,0,"NC",1,1,3.716,100
"4_15","29",2,2,"FSS","strong",3,4,"Fast",0,1,0,"C",1,0,2,0
"4_15","29",2,2,"FSS","strong",4,9,"Fast",1,1,1,"C",NA,0,5.102,NA
"4_15","29",2,2,"FSS","strong",5,16,"Fast",0,1,0,"C",1,0,2.35,0
"4_15","29",2,2,"FSS","strong",6,7,"Fast",0,0,1,"C",1,0,2.465,100
"4_15","29",2,2,"FSS","strong",7,13,"Fast",0,1,0,"NC",1,1,2.584,100
"4_15","29",2,2,"FSS","strong",8,3,"Fast",0,0,1,"NC",3,0,1.919,0
"4_15","29",2,2,"FSS","strong",9,8,"Fast",0,1,0,"C",1,0,3.869,100
"4_15","29",2,2,"FSS","strong",10,11,"Fast",0,1,0,"NC",1,1,2.315,100
"4_15","29",2,2,"FSS","strong",11,19,"Slow",NA,NA,0,"C",1,0,1.951,100
"4_15","29",2,2,"FSS","strong",12,2,"Slow",NA,NA,0,"C",2,0,2.336,0
"4_15","29",2,2,"FSS","strong",13,5,"Slow",NA,NA,0,"C",1,0,2.483,100
"4_15","29",2,2,"FSS","strong",14,6,"Slow",NA,NA,0,"NC",1,1,2.05,100
"4_15","29",2,2,"FSS","strong",15,17,"Slow",NA,NA,0,"NC",1,1,1.833,100
"4_15","29",2,2,"FSS","strong",16,1,"Slow",NA,NA,0,"C",1,0,2.467,0
"4_15","29",2,2,"FSS","strong",17,18,"Slow",NA,NA,0,"NC",2,0,2.083,100
"4_15","29",2,2,"FSS","strong",18,12,"Slow",NA,NA,0,"NC",1,1,2.541,100
"4_15","29",2,2,"FSS","strong",19,10,"Slow",NA,NA,0,"C",3,1,2.133,0
"4_15","29",2,2,"FSS","strong",20,14,"Slow",NA,NA,0,"NC",1,1,1.832,100
"4_16","22",1,2,"SFS","strong",1,1,"Slow",NA,NA,0,"NC",1,1,5.75,90
"4_16","22",1,2,"SFS","strong",2,19,"Slow",NA,NA,0,"NC",1,1,6.284,100
"4_16","22",1,2,"SFS","strong",3,6,"Slow",NA,NA,0,"NC",1,1,5.8,100
"4_16","22",1,2,"SFS","strong",4,11,"Slow",NA,NA,0,"C",3,1,14.533,100
"4_16","22",1,2,"SFS","strong",5,14,"Slow",NA,NA,0,"NC",1,1,6.817,99
"4_16","22",1,2,"SFS","strong",6,2,"Slow",NA,NA,0,"C",3,1,10.833,90
"4_16","22",1,2,"SFS","strong",7,9,"Slow",NA,NA,0,"NC",1,1,6.9,95
"4_16","22",1,2,"SFS","strong",8,8,"Slow",NA,NA,0,"C",3,1,7.1,100
"4_16","22",1,2,"SFS","strong",9,4,"Slow",NA,NA,0,"C",3,1,2.983,100
"4_16","22",1,2,"SFS","strong",10,16,"Slow",NA,NA,0,"C",4,0,9.95,0
"4_16","22",1,2,"SFS","strong",11,10,"Fast",1,1,1,"C",NA,0,5.034,NA
"4_16","22",1,2,"SFS","strong",12,3,"Fast",0,1,0,"C",1,0,1.783,100
"4_16","22",1,2,"SFS","strong",13,5,"Fast",0,1,0,"C",3,1,3.633,100
"4_16","22",1,2,"SFS","strong",14,7,"Fast",0,1,0,"C",3,1,3,100
"4_16","22",1,2,"SFS","strong",15,13,"Fast",0,1,0,"C",3,1,3.149,100
"4_16","22",1,2,"SFS","strong",16,17,"Fast",0,1,0,"NC",1,1,3.166,95
"4_16","22",1,2,"SFS","strong",17,12,"Fast",0,1,0,"NC",1,1,2.267,100
"4_16","22",1,2,"SFS","strong",18,18,"Fast",0,1,0,"NC",1,1,3.717,100
"4_16","22",1,2,"SFS","strong",19,20,"Fast",0,1,0,"NC",1,1,2.916,100
"4_16","22",1,2,"SFS","strong",20,15,"Fast",0,1,0,"NC",1,1,2.901,100
"4_17","31",1,3,"SFW","weak",1,12,"Slow",NA,NA,0,"C",1,0,3.445,100
"4_17","31",1,3,"SFW","weak",2,13,"Slow",NA,NA,0,"NC",1,1,4.525,100
"4_17","31",1,3,"SFW","weak",3,19,"Slow",NA,NA,0,"NC",1,1,4.561,100
"4_17","31",1,3,"SFW","weak",4,15,"Slow",NA,NA,0,"NC",1,1,4.11,100
"4_17","31",1,3,"SFW","weak",5,1,"Slow",NA,NA,0,"C",1,0,3.71,0
"4_17","31",1,3,"SFW","weak",6,11,"Slow",NA,NA,0,"C",3,1,6.292,100
"4_17","31",1,3,"SFW","weak",7,17,"Slow",NA,NA,0,"NC",1,1,3.312,100
"4_17","31",1,3,"SFW","weak",8,16,"Slow",NA,NA,0,"C",3,1,5.541,100
"4_17","31",1,3,"SFW","weak",9,14,"Slow",NA,NA,0,"C",1,0,3.111,100
"4_17","31",1,3,"SFW","weak",10,18,"Slow",NA,NA,0,"NC",1,1,4.01,50
"4_17","31",1,3,"SFW","weak",11,10,"Fast",0,0,1,"NC",2,0,3.146,100
"4_17","31",1,3,"SFW","weak",12,3,"Fast",0,1,0,"C",2,0,4.76,25
"4_17","31",1,3,"SFW","weak",13,2,"Fast",0,1,0,"C",3,1,4.645,100
"4_17","31",1,3,"SFW","weak",14,5,"Fast",0,1,0,"NC",1,1,3.145,100
"4_17","31",1,3,"SFW","weak",15,9,"Fast",0,1,0,"C",3,1,4.847,100
"4_17","31",1,3,"SFW","weak",16,6,"Fast",0,1,0,"C",1,0,3.077,100
"4_17","31",1,3,"SFW","weak",17,20,"Fast",0,1,0,"NC",1,1,3.843,100
"4_17","31",1,3,"SFW","weak",18,4,"Fast",0,1,0,"C",3,1,4.542,100
"4_17","31",1,3,"SFW","weak",19,7,"Fast",0,0,1,"NC",1,1,2.51,100
"4_17","31",1,3,"SFW","weak",20,8,"Fast",0,1,0,"NC",1,1,2.813,100
"4_18","55",2,2,"FSS","strong",1,12,"Fast",0,0,1,"C",1,0,4.033,80
"4_18","55",2,2,"FSS","strong",2,6,"Fast",0,1,0,"C",2,0,3.467,50
"4_18","55",2,2,"FSS","strong",3,10,"Fast",0,0,1,"NC",2,0,2.733,60
"4_18","55",2,2,"FSS","strong",4,7,"Fast",0,1,0,"NC",1,1,2.183,80
"4_18","55",2,2,"FSS","strong",5,18,"Fast",0,0,1,"NC",1,1,2.7,80
"4_18","55",2,2,"FSS","strong",6,16,"Fast",0,1,0,"C",2,0,1.782,50
"4_18","55",2,2,"FSS","strong",7,19,"Fast",0,0,1,"C",1,0,2.483,10
"4_18","55",2,2,"FSS","strong",8,17,"Fast",0,0,1,"NC",1,1,3.117,80
"4_18","55",2,2,"FSS","strong",9,13,"Fast",0,1,0,"C",2,0,3.501,50
"4_18","55",2,2,"FSS","strong",10,3,"Fast",0,0,1,"NC",3,0,4.351,50
"4_18","55",2,2,"FSS","strong",11,20,"Slow",NA,NA,0,"C",1,0,3.382,100
"4_18","55",2,2,"FSS","strong",12,5,"Slow",NA,NA,0,"NC",1,1,1.949,50
"4_18","55",2,2,"FSS","strong",13,8,"Slow",NA,NA,0,"C",4,0,3.581,60
"4_18","55",2,2,"FSS","strong",14,11,"Slow",NA,NA,0,"NC",3,0,3.465,50
"4_18","55",2,2,"FSS","strong",15,2,"Slow",NA,NA,0,"C",2,0,4.866,60
"4_18","55",2,2,"FSS","strong",16,1,"Slow",NA,NA,0,"C",4,0,4.064,60
"4_18","55",2,2,"FSS","strong",17,14,"Slow",NA,NA,0,"NC",1,1,3.281,65
"4_18","55",2,2,"FSS","strong",18,15,"Slow",NA,NA,0,"NC",1,1,3.168,80
"4_18","55",2,2,"FSS","strong",19,4,"Slow",NA,NA,0,"NC",4,0,1.965,90
"4_18","55",2,2,"FSS","strong",20,9,"Slow",NA,NA,0,"C",2,0,4,60
"4_19","30",2,3,"SFS","strong",1,10,"Slow",NA,NA,0,"C",1,0,4.565,100
"4_19","30",2,3,"SFS","strong",2,11,"Slow",NA,NA,0,"C",4,0,10.081,10
"4_19","30",2,3,"SFS","strong",3,4,"Slow",NA,NA,0,"NC",1,1,4.849,80
"4_19","30",2,3,"SFS","strong",4,16,"Slow",NA,NA,0,"NC",1,1,3.931,100
"4_19","30",2,3,"SFS","strong",5,20,"Slow",NA,NA,0,"NC",1,1,2.916,100
"4_19","30",2,3,"SFS","strong",6,7,"Slow",NA,NA,0,"C",3,1,8.445,90
"4_19","30",2,3,"SFS","strong",7,5,"Slow",NA,NA,0,"NC",1,1,4.215,100
"4_19","30",2,3,"SFS","strong",8,12,"Slow",NA,NA,0,"C",3,1,6.131,100
"4_19","30",2,3,"SFS","strong",9,2,"Slow",NA,NA,0,"C",1,0,11.513,100
"4_19","30",2,3,"SFS","strong",10,3,"Slow",NA,NA,0,"NC",1,1,4.315,90
"4_19","30",2,3,"SFS","strong",11,6,"Fast",0,1,0,"NC",1,1,3.415,100
"4_19","30",2,3,"SFS","strong",12,1,"Fast",0,1,0,"NC",1,1,2.75,100
"4_19","30",2,3,"SFS","strong",13,13,"Fast",0,1,0,"NC",1,1,2.533,100
"4_19","30",2,3,"SFS","strong",14,19,"Fast",0,1,0,"NC",1,1,4.333,100
"4_19","30",2,3,"SFS","strong",15,15,"Fast",0,1,0,"C",1,0,2.4,80
"4_19","30",2,3,"SFS","strong",16,17,"Fast",0,0,1,"C",3,1,3.432,10
"4_19","30",2,3,"SFS","strong",17,18,"Fast",0,0,1,"C",1,0,4.566,70
"4_19","30",2,3,"SFS","strong",18,14,"Fast",0,1,0,"C",1,0,3.099,80
"4_19","30",2,3,"SFS","strong",19,9,"Fast",0,1,0,"C",1,0,3.515,10
"4_19","30",2,3,"SFS","strong",20,8,"Fast",0,1,0,"NC",1,1,2.865,100
"4_20","42",2,3,"SFW","weak",1,13,"Slow",NA,NA,0,"NC",1,1,2.331,100
"4_20","42",2,3,"SFW","weak",2,3,"Slow",NA,NA,0,"C",3,1,3.082,100
"4_20","42",2,3,"SFW","weak",3,15,"Slow",NA,NA,0,"NC",1,1,3.918,100
"4_20","42",2,3,"SFW","weak",4,17,"Slow",NA,NA,0,"C",3,1,3.902,100
"4_20","42",2,3,"SFW","weak",5,8,"Slow",NA,NA,0,"C",3,1,4.799,100
"4_20","42",2,3,"SFW","weak",6,4,"Slow",NA,NA,0,"NC",1,1,2.904,100
"4_20","42",2,3,"SFW","weak",7,10,"Slow",NA,NA,0,"C",1,0,4.901,80
"4_20","42",2,3,"SFW","weak",8,1,"Slow",NA,NA,0,"C",3,1,5.672,100
"4_20","42",2,3,"SFW","weak",9,20,"Slow",NA,NA,0,"NC",1,1,4.001,100
"4_20","42",2,3,"SFW","weak",10,11,"Slow",NA,NA,0,"NC",1,1,3.636,100
"4_20","42",2,3,"SFW","weak",11,19,"Fast",1,1,1,"NC",NA,1,5.071,NA
"4_20","42",2,3,"SFW","weak",12,5,"Fast",0,0,1,"C",1,0,1.502,90
"4_20","42",2,3,"SFW","weak",13,14,"Fast",0,1,0,"C",1,0,2.418,100
"4_20","42",2,3,"SFW","weak",14,7,"Fast",0,1,0,"NC",1,1,2.351,100
"4_20","42",2,3,"SFW","weak",15,6,"Fast",0,1,0,"C",1,0,2.702,100
"4_20","42",2,3,"SFW","weak",16,2,"Fast",0,1,0,"C",3,1,3.049,100
"4_20","42",2,3,"SFW","weak",17,9,"Fast",0,1,0,"NC",1,1,4.951,100
"4_20","42",2,3,"SFW","weak",18,12,"Fast",0,1,0,"NC",1,1,2.2,100
"4_20","42",2,3,"SFW","weak",19,16,"Fast",0,1,0,"NC",1,1,2.435,100
"4_20","42",2,3,"SFW","weak",20,18,"Fast",0,1,0,"C",3,1,2.584,100
"4_21","55",2,3,"FSW","weak",1,19,"Fast",0,1,0,"C",2,0,2.151,100
"4_21","55",2,3,"FSW","weak",2,17,"Fast",0,0,1,"NC",1,1,2.05,100
"4_21","55",2,3,"FSW","weak",3,3,"Fast",0,1,0,"C",2,0,2.15,50
"4_21","55",2,3,"FSW","weak",4,18,"Fast",0,0,1,"C",1,0,2.535,100
"4_21","55",2,3,"FSW","weak",5,6,"Fast",0,1,0,"NC",1,1,2.384,100
"4_21","55",2,3,"FSW","weak",6,20,"Fast",0,0,1,"C",1,0,2.216,100
"4_21","55",2,3,"FSW","weak",7,12,"Fast",0,1,0,"C",1,0,2.45,100
"4_21","55",2,3,"FSW","weak",8,8,"Fast",0,0,1,"NC",2,0,2.435,100
"4_21","55",2,3,"FSW","weak",9,14,"Fast",0,1,0,"NC",1,1,1.851,100
"4_21","55",2,3,"FSW","weak",10,1,"Fast",0,0,1,"NC",4,0,3.352,0
"4_21","55",2,3,"FSW","weak",11,9,"Slow",NA,NA,0,"C",3,1,4.334,100
"4_21","55",2,3,"FSW","weak",12,13,"Slow",NA,NA,0,"NC",1,1,2.319,100
"4_21","55",2,3,"FSW","weak",13,5,"Slow",NA,NA,0,"C",1,0,2.768,100
"4_21","55",2,3,"FSW","weak",14,15,"Slow",NA,NA,0,"NC",1,1,3.269,100
"4_21","55",2,3,"FSW","weak",15,4,"Slow",NA,NA,0,"C",4,0,4.201,100
"4_21","55",2,3,"FSW","weak",16,7,"Slow",NA,NA,0,"C",4,0,7.32,100
"4_21","55",2,3,"FSW","weak",17,10,"Slow",NA,NA,0,"NC",1,1,3.535,100
"4_21","55",2,3,"FSW","weak",18,2,"Slow",NA,NA,0,"C",4,0,4.901,100
"4_21","55",2,3,"FSW","weak",19,11,"Slow",NA,NA,0,"NC",1,1,2.5,100
"4_21","55",2,3,"FSW","weak",20,16,"Slow",NA,NA,0,"NC",1,1,2.618,100
"4_22","43",1,4,"SFS","strong",1,11,"Slow",NA,NA,0,"NC",3,0,3.872,0
"4_22","43",1,4,"SFS","strong",2,1,"Slow",NA,NA,0,"C",2,0,4.206,0
"4_22","43",1,4,"SFS","strong",3,3,"Slow",NA,NA,0,"C",1,0,2.152,100
"4_22","43",1,4,"SFS","strong",4,18,"Slow",NA,NA,0,"C",3,1,3.705,100
"4_22","43",1,4,"SFS","strong",5,12,"Slow",NA,NA,0,"NC",1,1,4.355,50
"4_22","43",1,4,"SFS","strong",6,9,"Slow",NA,NA,0,"NC",1,1,4.806,100
"4_22","43",1,4,"SFS","strong",7,19,"Slow",NA,NA,0,"C",1,0,6.442,20
"4_22","43",1,4,"SFS","strong",8,20,"Slow",NA,NA,0,"NC",3,0,5.84,100
"4_22","43",1,4,"SFS","strong",9,16,"Slow",NA,NA,0,"C",1,0,3.004,100
"4_22","43",1,4,"SFS","strong",10,17,"Slow",NA,NA,0,"NC",3,0,5.072,50
"4_22","43",1,4,"SFS","strong",11,13,"Fast",0,0,1,"NC",1,1,2.503,100
"4_22","43",1,4,"SFS","strong",12,7,"Fast",0,1,0,"C",1,0,2.437,100
"4_22","43",1,4,"SFS","strong",13,14,"Fast",0,0,1,"NC",1,1,2.554,100
"4_22","43",1,4,"SFS","strong",14,2,"Fast",0,1,0,"C",2,0,2.721,100
"4_22","43",1,4,"SFS","strong",15,5,"Fast",0,1,0,"NC",1,1,3.587,50
"4_22","43",1,4,"SFS","strong",16,10,"Fast",0,1,0,"NC",1,1,1.819,100
"4_22","43",1,4,"SFS","strong",17,15,"Fast",0,1,0,"C",1,0,2.886,100
"4_22","43",1,4,"SFS","strong",18,6,"Fast",0,1,0,"C",1,0,3.971,50
"4_22","43",1,4,"SFS","strong",19,4,"Fast",0,0,1,"C",1,0,2.92,100
"4_22","43",1,4,"SFS","strong",20,8,"Fast",0,1,0,"NC",1,1,2.719,100
"4_23","28",1,3,"FSW","weak",1,7,"Fast",1,1,1,"C",NA,0,5.008,NA
"4_23","28",1,3,"FSW","weak",2,10,"Fast",0,0,1,"C",1,0,4.299,20
"4_23","28",1,3,"FSW","weak",3,14,"Fast",0,0,1,"NC",1,1,2.41,90
"4_23","28",1,3,"FSW","weak",4,2,"Fast",0,1,0,"NC",1,1,3.334,50
"4_23","28",1,3,"FSW","weak",5,5,"Fast",0,0,1,"NC",1,1,3.161,90
"4_23","28",1,3,"FSW","weak",6,3,"Fast",0,1,0,"C",1,0,3.709,20
"4_23","28",1,3,"FSW","weak",7,1,"Fast",0,1,0,"NC",4,0,3.793,10
"4_23","28",1,3,"FSW","weak",8,15,"Fast",0,1,0,"NC",1,1,4.202,90
"4_23","28",1,3,"FSW","weak",9,17,"Fast",0,1,0,"C",4,0,4.459,10
"4_23","28",1,3,"FSW","weak",10,12,"Fast",0,1,0,"C",1,0,3.514,100
"4_23","28",1,3,"FSW","weak",11,20,"Slow",NA,NA,0,"C",1,0,3.75,80
"4_23","28",1,3,"FSW","weak",12,4,"Slow",NA,NA,0,"C",3,1,6.425,100
"4_23","28",1,3,"FSW","weak",13,6,"Slow",NA,NA,0,"C",1,0,5.418,100
"4_23","28",1,3,"FSW","weak",14,8,"Slow",NA,NA,0,"NC",1,1,2.229,100
"4_23","28",1,3,"FSW","weak",15,19,"Slow",NA,NA,0,"NC",1,1,5.05,100
"4_23","28",1,3,"FSW","weak",16,18,"Slow",NA,NA,0,"NC",1,1,9.03,10
"4_23","28",1,3,"FSW","weak",17,11,"Slow",NA,NA,0,"NC",1,1,5.633,70
"4_23","28",1,3,"FSW","weak",18,13,"Slow",NA,NA,0,"C",3,1,8.363,85
"4_23","28",1,3,"FSW","weak",19,9,"Slow",NA,NA,0,"NC",1,1,12.03,85
"4_23","28",1,3,"FSW","weak",20,16,"Slow",NA,NA,0,"C",3,1,6.328,80
"4_24","21",2,3,"SFS","strong",1,9,"Slow",NA,NA,0,"C",3,1,5.098,99
"4_24","21",2,3,"SFS","strong",2,7,"Slow",NA,NA,0,"C",3,1,18.248,60
"4_24","21",2,3,"SFS","strong",3,14,"Slow",NA,NA,0,"NC",1,1,2.984,90
"4_24","21",2,3,"SFS","strong",4,11,"Slow",NA,NA,0,"NC",1,1,3.081,80
"4_24","21",2,3,"SFS","strong",5,13,"Slow",NA,NA,0,"NC",1,1,3.819,90
"4_24","21",2,3,"SFS","strong",6,16,"Slow",NA,NA,0,"C",3,1,5.206,100
"4_24","21",2,3,"SFS","strong",7,19,"Slow",NA,NA,0,"NC",1,1,6.102,100
"4_24","21",2,3,"SFS","strong",8,15,"Slow",NA,NA,0,"C",1,0,4.15,100
"4_24","21",2,3,"SFS","strong",9,12,"Slow",NA,NA,0,"NC",4,0,5.431,0
"4_24","21",2,3,"SFS","strong",10,20,"Slow",NA,NA,0,"C",1,0,4.004,20
"4_24","21",2,3,"SFS","strong",11,4,"Fast",0,1,0,"C",1,0,3.835,80
"4_24","21",2,3,"SFS","strong",12,5,"Fast",0,1,0,"NC",1,1,3.471,90
"4_24","21",2,3,"SFS","strong",13,10,"Fast",0,1,0,"NC",1,1,4.916,80
"4_24","21",2,3,"SFS","strong",14,6,"Fast",0,1,0,"NC",1,1,2.798,90
"4_24","21",2,3,"SFS","strong",15,17,"Fast",0,1,0,"C",1,0,3.134,100
"4_24","21",2,3,"SFS","strong",16,3,"Fast",0,1,0,"C",1,0,2.567,0
"4_24","21",2,3,"SFS","strong",17,18,"Fast",0,1,0,"C",1,0,3.401,70
"4_24","21",2,3,"SFS","strong",18,2,"Fast",0,1,0,"NC",4,0,3.582,0
"4_24","21",2,3,"SFS","strong",19,8,"Fast",0,1,0,"NC",1,1,3.319,90
"4_24","21",2,3,"SFS","strong",20,1,"Fast",0,1,0,"C",3,1,3.135,90
"4_25","52",2,3,"SFW","weak",1,16,"Slow",NA,NA,0,"C",2,0,7.759,50
"4_25","52",2,3,"SFW","weak",2,20,"Slow",NA,NA,0,"C",3,1,6.227,100
"4_25","52",2,3,"SFW","weak",3,2,"Slow",NA,NA,0,"NC",1,1,5.578,20
"4_25","52",2,3,"SFW","weak",4,8,"Slow",NA,NA,0,"NC",4,0,7.009,100
"4_25","52",2,3,"SFW","weak",5,6,"Slow",NA,NA,0,"C",1,0,4.696,100
"4_25","52",2,3,"SFW","weak",6,19,"Slow",NA,NA,0,"NC",1,1,6.445,100
"4_25","52",2,3,"SFW","weak",7,1,"Slow",NA,NA,0,"NC",4,0,5.88,100
"4_25","52",2,3,"SFW","weak",8,12,"Slow",NA,NA,0,"C",3,1,6.229,100
"4_25","52",2,3,"SFW","weak",9,18,"Slow",NA,NA,0,"C",1,0,10.457,20
"4_25","52",2,3,"SFW","weak",10,9,"Slow",NA,NA,0,"NC",1,1,9.956,100
"4_25","52",2,3,"SFW","weak",11,15,"Fast",0,1,0,"C",2,0,2.346,20
"4_25","52",2,3,"SFW","weak",12,13,"Fast",0,0,1,"C",1,0,2.197,20
"4_25","52",2,3,"SFW","weak",13,5,"Fast",0,1,0,"C",2,0,2.78,50
"4_25","52",2,3,"SFW","weak",14,7,"Fast",0,0,1,"C",1,0,3.767,50
"4_25","52",2,3,"SFW","weak",15,14,"Fast",0,0,1,"C",1,0,3.73,100
"4_25","52",2,3,"SFW","weak",16,17,"Fast",0,0,1,"NC",1,1,4.281,20
"4_25","52",2,3,"SFW","weak",17,3,"Fast",0,1,0,"NC",1,1,3.396,100
"4_25","52",2,3,"SFW","weak",18,10,"Fast",0,0,1,"NC",1,1,2.999,20
"4_25","52",2,3,"SFW","weak",19,11,"Fast",0,0,1,"NC",1,1,3.563,50
"4_25","52",2,3,"SFW","weak",20,4,"Fast",0,0,1,"NC",1,1,3.413,20
"4_26","36",1,2,"FSS","strong",1,3,"Fast",0,1,0,"NC",4,0,3.73,10
"4_26","36",1,2,"FSS","strong",2,12,"Fast",0,1,0,"NC",1,1,3.25,100
"4_26","36",1,2,"FSS","strong",3,17,"Fast",0,1,0,"C",1,0,3.82,100
"4_26","36",1,2,"FSS","strong",4,8,"Fast",1,1,1,"C",NA,0,5.015,NA
"4_26","36",1,2,"FSS","strong",5,20,"Fast",0,1,0,"NC",1,1,3.855,100
"4_26","36",1,2,"FSS","strong",6,10,"Fast",0,1,0,"C",2,0,4.925,10
"4_26","36",1,2,"FSS","strong",7,18,"Fast",0,1,0,"NC",4,0,3.702,10
"4_26","36",1,2,"FSS","strong",8,16,"Fast",0,1,0,"C",1,0,4.438,50
"4_26","36",1,2,"FSS","strong",9,19,"Fast",0,0,1,"NC",1,1,2.008,100
"4_26","36",1,2,"FSS","strong",10,1,"Fast",0,1,0,"C",4,0,4.481,100
"4_26","36",1,2,"FSS","strong",11,5,"Slow",NA,NA,0,"C",1,0,2.73,100
"4_26","36",1,2,"FSS","strong",12,13,"Slow",NA,NA,0,"NC",1,1,2.112,100
"4_26","36",1,2,"FSS","strong",13,14,"Slow",NA,NA,0,"C",1,0,2.959,100
"4_26","36",1,2,"FSS","strong",14,11,"Slow",NA,NA,0,"NC",1,1,2.493,100
"4_26","36",1,2,"FSS","strong",15,4,"Slow",NA,NA,0,"C",1,0,2.723,50
"4_26","36",1,2,"FSS","strong",16,9,"Slow",NA,NA,0,"NC",1,1,4.383,100
"4_26","36",1,2,"FSS","strong",17,2,"Slow",NA,NA,0,"NC",1,1,3.049,100
"4_26","36",1,2,"FSS","strong",18,6,"Slow",NA,NA,0,"NC",1,1,3.244,100
"4_26","36",1,2,"FSS","strong",19,7,"Slow",NA,NA,0,"C",1,0,4.064,100
"4_26","36",1,2,"FSS","strong",20,15,"Slow",NA,NA,0,"C",1,0,2.313,100
"4_27","27",2,4,"SFS","strong",1,7,"Slow",NA,NA,0,"C",3,1,13.466,100
"4_27","27",2,4,"SFS","strong",2,3,"Slow",NA,NA,0,"C",1,0,4.715,90
"4_27","27",2,4,"SFS","strong",3,10,"Slow",NA,NA,0,"NC",1,1,9.749,90
"4_27","27",2,4,"SFS","strong",4,4,"Slow",NA,NA,0,"NC",1,1,9.351,80
"4_27","27",2,4,"SFS","strong",5,17,"Slow",NA,NA,0,"C",1,0,4.834,100
"4_27","27",2,4,"SFS","strong",6,1,"Slow",NA,NA,0,"C",3,1,5.048,100
"4_27","27",2,4,"SFS","strong",7,14,"Slow",NA,NA,0,"NC",1,1,4.766,100
"4_27","27",2,4,"SFS","strong",8,11,"Slow",NA,NA,0,"NC",1,1,6.767,100
"4_27","27",2,4,"SFS","strong",9,6,"Slow",NA,NA,0,"C",1,0,3.549,100
"4_27","27",2,4,"SFS","strong",10,13,"Slow",NA,NA,0,"NC",1,1,3.554,100
"4_27","27",2,4,"SFS","strong",11,20,"Fast",0,1,0,"NC",1,1,4.067,100
"4_27","27",2,4,"SFS","strong",12,19,"Fast",0,1,0,"C",1,0,2.917,100
"4_27","27",2,4,"SFS","strong",13,9,"Fast",0,1,0,"C",3,1,4.284,100
"4_27","27",2,4,"SFS","strong",14,2,"Fast",0,1,0,"NC",1,1,3.701,90
"4_27","27",2,4,"SFS","strong",15,15,"Fast",0,1,0,"NC",1,1,3.15,100
"4_27","27",2,4,"SFS","strong",16,16,"Fast",0,1,0,"NC",1,1,2.333,100
"4_27","27",2,4,"SFS","strong",17,18,"Fast",0,1,0,"C",3,1,3.9,100
"4_27","27",2,4,"SFS","strong",18,5,"Fast",0,1,0,"NC",1,1,3.418,90
"4_27","27",2,4,"SFS","strong",19,12,"Fast",0,1,0,"C",1,0,2.418,100
"4_27","27",2,4,"SFS","strong",20,8,"Fast",0,1,0,"C",1,0,5.018,60
"4_28","50",2,3,"SFW","weak",1,12,"Slow",NA,NA,0,"NC",1,1,5.368,100
"4_28","50",2,3,"SFW","weak",2,19,"Slow",NA,NA,0,"C",1,0,5.249,100
"4_28","50",2,3,"SFW","weak",3,5,"Slow",NA,NA,0,"C",3,1,9.648,100
"4_28","50",2,3,"SFW","weak",4,1,"Slow",NA,NA,0,"NC",4,0,10.149,100
"4_28","50",2,3,"SFW","weak",5,8,"Slow",NA,NA,0,"C",4,0,15.631,100
"4_28","50",2,3,"SFW","weak",6,9,"Slow",NA,NA,0,"NC",1,1,5.365,100
"4_28","50",2,3,"SFW","weak",7,4,"Slow",NA,NA,0,"C",3,1,5.606,100
"4_28","50",2,3,"SFW","weak",8,13,"Slow",NA,NA,0,"C",3,1,4.4,100
"4_28","50",2,3,"SFW","weak",9,3,"Slow",NA,NA,0,"NC",1,1,8.982,100
"4_28","50",2,3,"SFW","weak",10,7,"Slow",NA,NA,0,"NC",1,1,15.982,100
"4_28","50",2,3,"SFW","weak",11,10,"Fast",1,0,1,"NC",NA,1,5.084,NA
"4_28","50",2,3,"SFW","weak",12,14,"Fast",0,1,0,"C",1,0,2.885,100
"4_28","50",2,3,"SFW","weak",13,18,"Fast",0,0,1,"NC",1,1,3.316,50
"4_28","50",2,3,"SFW","weak",14,20,"Fast",0,1,0,"NC",1,1,4.417,100
"4_28","50",2,3,"SFW","weak",15,15,"Fast",0,1,0,"NC",1,1,4.866,100
"4_28","50",2,3,"SFW","weak",16,2,"Fast",0,1,0,"NC",1,1,3.567,100
"4_28","50",2,3,"SFW","weak",17,17,"Fast",0,1,0,"C",1,0,3.833,100
"4_28","50",2,3,"SFW","weak",18,6,"Fast",0,0,1,"C",1,0,3.667,100
"4_28","50",2,3,"SFW","weak",19,16,"Fast",1,0,1,"C",NA,0,5.083,NA
"4_28","50",2,3,"SFW","weak",20,11,"Fast",0,0,1,"C",3,1,4.2,0
"4_29","22",2,1,"FSW","weak",1,15,"Fast",1,1,1,"C",NA,0,5.499,NA
"4_29","22",2,1,"FSW","weak",2,11,"Fast",0,1,0,"NC",1,1,4.325,60
"4_29","22",2,1,"FSW","weak",3,7,"Fast",0,1,0,"C",1,0,3.913,90
"4_29","22",2,1,"FSW","weak",4,5,"Fast",0,0,1,"C",1,0,3.31,80
"4_29","22",2,1,"FSW","weak",5,10,"Fast",0,1,0,"NC",3,0,4.014,30
"4_29","22",2,1,"FSW","weak",6,8,"Fast",0,0,1,"NC",2,0,2.404,70
"4_29","22",2,1,"FSW","weak",7,19,"Fast",0,1,0,"C",2,0,5.214,60
"4_29","22",2,1,"FSW","weak",8,9,"Fast",1,1,1,"NC",NA,0,5.265,NA
"4_29","22",2,1,"FSW","weak",9,13,"Fast",0,0,1,"C",2,0,4.336,20
"4_29","22",2,1,"FSW","weak",10,2,"Fast",0,0,1,"NC",1,1,4.669,70
"4_29","22",2,1,"FSW","weak",11,4,"Slow",NA,NA,0,"C",2,0,4.297,20
"4_29","22",2,1,"FSW","weak",12,16,"Slow",NA,NA,0,"NC",2,0,3.267,10
"4_29","22",2,1,"FSW","weak",13,12,"Slow",NA,NA,0,"NC",2,0,4.956,10
"4_29","22",2,1,"FSW","weak",14,17,"Slow",NA,NA,0,"NC",1,1,4.565,90
"4_29","22",2,1,"FSW","weak",15,6,"Slow",NA,NA,0,"NC",1,1,6.992,59
"4_29","22",2,1,"FSW","weak",16,3,"Slow",NA,NA,0,"C",1,0,4.497,2
"4_29","22",2,1,"FSW","weak",17,14,"Slow",NA,NA,0,"C",1,0,5.046,99
"4_29","22",2,1,"FSW","weak",18,1,"Slow",NA,NA,0,"C",2,0,5.845,2
"4_29","22",2,1,"FSW","weak",19,18,"Slow",NA,NA,0,"NC",1,1,5.262,40
"4_29","22",2,1,"FSW","weak",20,20,"Slow",NA,NA,0,"C",3,1,9.183,3
"4_30","31",2,4,"FSW","weak",1,7,"Fast",0,1,0,"C",1,0,2.383,100
"4_30","31",2,4,"FSW","weak",2,6,"Fast",0,1,0,"C",1,0,2.964,100
"4_30","31",2,4,"FSW","weak",3,1,"Fast",0,1,0,"C",3,1,4.299,75
"4_30","31",2,4,"FSW","weak",4,5,"Fast",0,1,0,"NC",1,1,2.182,100
"4_30","31",2,4,"FSW","weak",5,11,"Fast",0,1,0,"NC",1,1,2.316,90
"4_30","31",2,4,"FSW","weak",6,12,"Fast",0,1,0,"C",1,0,2.098,100
"4_30","31",2,4,"FSW","weak",7,10,"Fast",0,1,0,"NC",1,1,2.199,100
"4_30","31",2,4,"FSW","weak",8,17,"Fast",0,0,1,"NC",1,1,2.015,100
"4_30","31",2,4,"FSW","weak",9,13,"Fast",0,1,0,"NC",1,1,1.75,100
"4_30","31",2,4,"FSW","weak",10,3,"Fast",0,1,0,"C",1,0,1.898,100
"4_30","31",2,4,"FSW","weak",11,8,"Slow",NA,NA,0,"C",3,1,6.814,100
"4_30","31",2,4,"FSW","weak",12,18,"Slow",NA,NA,0,"NC",1,1,4.098,100
"4_30","31",2,4,"FSW","weak",13,20,"Slow",NA,NA,0,"C",3,1,3.764,100
"4_30","31",2,4,"FSW","weak",14,2,"Slow",NA,NA,0,"NC",1,1,2.117,90
"4_30","31",2,4,"FSW","weak",15,19,"Slow",NA,NA,0,"NC",1,1,3.58,75
"4_30","31",2,4,"FSW","weak",16,9,"Slow",NA,NA,0,"NC",1,1,3.448,100
"4_30","31",2,4,"FSW","weak",17,14,"Slow",NA,NA,0,"C",1,0,2.266,100
"4_30","31",2,4,"FSW","weak",18,16,"Slow",NA,NA,0,"NC",1,1,1.915,100
"4_30","31",2,4,"FSW","weak",19,15,"Slow",NA,NA,0,"C",3,1,3.199,100
"4_30","31",2,4,"FSW","weak",20,4,"Slow",NA,NA,0,"C",3,1,3.064,100
"4_31","22",1,2,"FSW","weak",1,18,"Fast",0,1,0,"NC",1,1,4.72,50
"4_31","22",1,2,"FSW","weak",2,11,"Fast",0,1,0,"NC",1,1,4.705,100
"4_31","22",1,2,"FSW","weak",3,9,"Fast",1,1,1,"C",NA,1,5.028,NA
"4_31","22",1,2,"FSW","weak",4,8,"Fast",0,1,0,"C",3,1,3.308,100
"4_31","22",1,2,"FSW","weak",5,13,"Fast",1,1,1,"C",NA,1,5.027,NA
"4_31","22",1,2,"FSW","weak",6,14,"Fast",0,1,0,"NC",1,1,3.106,100
"4_31","22",1,2,"FSW","weak",7,20,"Fast",0,1,0,"C",3,1,3.453,100
"4_31","22",1,2,"FSW","weak",8,10,"Fast",0,1,0,"C",3,1,4.199,100
"4_31","22",1,2,"FSW","weak",9,16,"Fast",0,1,0,"NC",1,1,3.347,100
"4_31","22",1,2,"FSW","weak",10,17,"Fast",0,1,0,"NC",1,1,2.495,100
"4_31","22",1,2,"FSW","weak",11,12,"Slow",NA,NA,0,"NC",1,1,3.853,100
"4_31","22",1,2,"FSW","weak",12,15,"Slow",NA,NA,0,"NC",1,1,7.411,100
"4_31","22",1,2,"FSW","weak",13,2,"Slow",NA,NA,0,"NC",3,0,4.534,100
"4_31","22",1,2,"FSW","weak",14,7,"Slow",NA,NA,0,"NC",1,1,8.999,100
"4_31","22",1,2,"FSW","weak",15,4,"Slow",NA,NA,0,"NC",4,0,4.946,50
"4_31","22",1,2,"FSW","weak",16,3,"Slow",NA,NA,0,"C",3,1,10.467,40
"4_31","22",1,2,"FSW","weak",17,6,"Slow",NA,NA,0,"C",3,1,12.893,50
"4_31","22",1,2,"FSW","weak",18,1,"Slow",NA,NA,0,"C",3,1,11.026,80
"4_31","22",1,2,"FSW","weak",19,19,"Slow",NA,NA,0,"C",3,1,8.08,100
"4_31","22",1,2,"FSW","weak",20,5,"Slow",NA,NA,0,"C",3,1,4.374,100
"4_32","65",2,2,"SFW","weak",1,14,"Slow",NA,NA,0,"NC",1,1,2.999,100
"4_32","65",2,2,"SFW","weak",2,2,"Slow",NA,NA,0,"C",1,0,4.432,50
"4_32","65",2,2,"SFW","weak",3,12,"Slow",NA,NA,0,"NC",1,1,3.066,100
"4_32","65",2,2,"SFW","weak",4,9,"Slow",NA,NA,0,"NC",1,1,5.182,100
"4_32","65",2,2,"SFW","weak",5,18,"Slow",NA,NA,0,"C",1,0,2.983,100
"4_32","65",2,2,"SFW","weak",6,17,"Slow",NA,NA,0,"C",3,1,5.232,100
"4_32","65",2,2,"SFW","weak",7,5,"Slow",NA,NA,0,"C",3,1,4.283,100
"4_32","65",2,2,"SFW","weak",8,7,"Slow",NA,NA,0,"NC",1,1,3.198,100
"4_32","65",2,2,"SFW","weak",9,4,"Slow",NA,NA,0,"C",3,1,3.216,100
"4_32","65",2,2,"SFW","weak",10,16,"Slow",NA,NA,0,"NC",1,1,3.183,100
"4_32","65",2,2,"SFW","weak",11,19,"Fast",0,0,1,"NC",1,1,4.466,100
"4_32","65",2,2,"SFW","weak",12,13,"Fast",1,0,1,"NC",NA,1,5.033,NA
"4_32","65",2,2,"SFW","weak",13,1,"Fast",0,1,0,"NC",1,1,4.332,100
"4_32","65",2,2,"SFW","weak",14,15,"Fast",0,1,0,"NC",1,1,2.549,100
"4_32","65",2,2,"SFW","weak",15,11,"Fast",0,0,1,"NC",1,1,3.149,100
"4_32","65",2,2,"SFW","weak",16,6,"Fast",0,1,0,"C",1,0,1.999,100
"4_32","65",2,2,"SFW","weak",17,3,"Fast",0,1,0,"C",1,0,2.633,100
"4_32","65",2,2,"SFW","weak",18,10,"Fast",0,1,0,"C",1,0,2.399,100
"4_32","65",2,2,"SFW","weak",19,20,"Fast",0,0,1,"C",1,0,2.599,100
"4_32","65",2,2,"SFW","weak",20,8,"Fast",0,0,1,"C",4,0,4.048,100
"4_33","59",2,3,"FSS","strong",1,18,"Fast",1,1,1,"NC",NA,0,5.022,NA
"4_33","59",2,3,"FSS","strong",2,5,"Fast",0,0,1,"C",1,0,3.725,50
"4_33","59",2,3,"FSS","strong",3,1,"Fast",0,1,0,"NC",1,1,4.374,50
"4_33","59",2,3,"FSS","strong",4,19,"Fast",1,1,1,"C",NA,1,5.023,NA
"4_33","59",2,3,"FSS","strong",5,17,"Fast",0,1,0,"C",1,0,4.657,50
"4_33","59",2,3,"FSS","strong",6,9,"Fast",0,1,0,"NC",2,0,4.043,0
"4_33","59",2,3,"FSS","strong",7,11,"Fast",1,1,1,"NC",NA,0,5.023,NA
"4_33","59",2,3,"FSS","strong",8,6,"Fast",0,1,0,"NC",1,1,4.357,50
"4_33","59",2,3,"FSS","strong",9,12,"Fast",0,1,0,"C",1,0,3.26,100
"4_33","59",2,3,"FSS","strong",10,4,"Fast",0,1,0,"C",1,0,5.006,0
"4_33","59",2,3,"FSS","strong",11,16,"Slow",NA,NA,0,"NC",1,1,5.155,100
"4_33","59",2,3,"FSS","strong",12,7,"Slow",NA,NA,0,"C",3,1,9.33,100
"4_33","59",2,3,"FSS","strong",13,8,"Slow",NA,NA,0,"C",3,1,17.379,100
"4_33","59",2,3,"FSS","strong",14,13,"Slow",NA,NA,0,"NC",1,1,9.829,100
"4_33","59",2,3,"FSS","strong",15,3,"Slow",NA,NA,0,"NC",1,1,7.734,100
"4_33","59",2,3,"FSS","strong",16,20,"Slow",NA,NA,0,"NC",1,1,14.07,100
"4_33","59",2,3,"FSS","strong",17,14,"Slow",NA,NA,0,"NC",1,1,9.031,100
"4_33","59",2,3,"FSS","strong",18,2,"Slow",NA,NA,0,"C",3,1,21.071,50
"4_33","59",2,3,"FSS","strong",19,10,"Slow",NA,NA,0,"C",3,1,13.804,100
"4_33","59",2,3,"FSS","strong",20,15,"Slow",NA,NA,0,"C",3,1,10.444,100
"4_34","32",1,3,"FSW","weak",1,16,"Fast",0,1,0,"C",1,0,2.467,40
"4_34","32",1,3,"FSW","weak",2,1,"Fast",0,1,0,"NC",2,0,1.514,60
"4_34","32",1,3,"FSW","weak",3,8,"Fast",0,0,1,"NC",1,1,2.214,60
"4_34","32",1,3,"FSW","weak",4,7,"Fast",0,1,0,"NC",2,0,1.964,40
"4_34","32",1,3,"FSW","weak",5,12,"Fast",0,0,1,"C",2,0,2.083,70
"4_34","32",1,3,"FSW","weak",6,18,"Fast",0,1,0,"C",2,0,3.263,50
"4_34","32",1,3,"FSW","weak",7,15,"Fast",0,0,1,"C",1,0,2.366,60
"4_34","32",1,3,"FSW","weak",8,9,"Fast",0,0,1,"C",1,0,1.066,70
"4_34","32",1,3,"FSW","weak",9,20,"Fast",0,0,1,"NC",1,1,3.513,50
"4_34","32",1,3,"FSW","weak",10,2,"Fast",0,1,0,"NC",2,0,1.314,40
"4_34","32",1,3,"FSW","weak",11,4,"Slow",NA,NA,0,"NC",2,0,2.85,50
"4_34","32",1,3,"FSW","weak",12,17,"Slow",NA,NA,0,"C",1,0,2.316,25
"4_34","32",1,3,"FSW","weak",13,3,"Slow",NA,NA,0,"C",2,0,2.966,50
"4_34","32",1,3,"FSW","weak",14,10,"Slow",NA,NA,0,"C",2,0,1.3,50
"4_34","32",1,3,"FSW","weak",15,14,"Slow",NA,NA,0,"NC",1,1,1.716,50
"4_34","32",1,3,"FSW","weak",16,19,"Slow",NA,NA,0,"NC",1,1,1.848,50
"4_34","32",1,3,"FSW","weak",17,6,"Slow",NA,NA,0,"C",1,0,13.564,60
"4_34","32",1,3,"FSW","weak",18,13,"Slow",NA,NA,0,"NC",1,1,6.615,60
"4_34","32",1,3,"FSW","weak",19,5,"Slow",NA,NA,0,"C",2,0,7.915,50
"4_34","32",1,3,"FSW","weak",20,11,"Slow",NA,NA,0,"NC",1,1,6.383,50
"4_35","38",1,3,"SFS","strong",1,5,"Slow",NA,NA,0,"NC",1,1,4.283,100
"4_35","38",1,3,"SFS","strong",2,8,"Slow",NA,NA,0,"NC",1,1,4.899,100
"4_35","38",1,3,"SFS","strong",3,6,"Slow",NA,NA,0,"C",1,0,12.379,100
"4_35","38",1,3,"SFS","strong",4,14,"Slow",NA,NA,0,"C",1,0,4.282,100
"4_35","38",1,3,"SFS","strong",5,13,"Slow",NA,NA,0,"C",3,1,4.365,100
"4_35","38",1,3,"SFS","strong",6,18,"Slow",NA,NA,0,"C",3,1,6.265,100
"4_35","38",1,3,"SFS","strong",7,7,"Slow",NA,NA,0,"NC",1,1,5.182,100
"4_35","38",1,3,"SFS","strong",8,15,"Slow",NA,NA,0,"NC",1,1,8.197,100
"4_35","38",1,3,"SFS","strong",9,9,"Slow",NA,NA,0,"C",1,0,11.363,100
"4_35","38",1,3,"SFS","strong",10,17,"Slow",NA,NA,0,"NC",1,1,7.181,100
"4_35","38",1,3,"SFS","strong",11,16,"Fast",0,0,1,"C",1,0,4.865,100
"4_35","38",1,3,"SFS","strong",12,2,"Fast",1,1,1,"NC",NA,0,5.032,NA
"4_35","38",1,3,"SFS","strong",13,4,"Fast",0,0,1,"NC",1,1,3.282,100
"4_35","38",1,3,"SFS","strong",14,12,"Fast",0,1,0,"C",1,0,3.699,100
"4_35","38",1,3,"SFS","strong",15,1,"Fast",0,1,0,"C",3,1,3.866,100
"4_35","38",1,3,"SFS","strong",16,3,"Fast",0,1,0,"NC",1,1,3.215,100
"4_35","38",1,3,"SFS","strong",17,11,"Fast",0,1,0,"C",1,0,3.982,0
"4_35","38",1,3,"SFS","strong",18,20,"Fast",0,1,0,"NC",1,1,3.533,100
"4_35","38",1,3,"SFS","strong",19,19,"Fast",1,1,1,"C",NA,1,5.033,NA
"4_35","38",1,3,"SFS","strong",20,10,"Fast",0,1,0,"NC",2,0,3.05,100
"4_36","51",2,4,"SFS","strong",1,16,"Slow",NA,NA,0,"NC",1,1,4.638,100
"4_36","51",2,4,"SFS","strong",2,3,"Slow",NA,NA,0,"C",1,0,3.834,95
"4_36","51",2,4,"SFS","strong",3,15,"Slow",NA,NA,0,"NC",3,0,13.443,100
"4_36","51",2,4,"SFS","strong",4,19,"Slow",NA,NA,0,"C",1,0,4.618,100
"4_36","51",2,4,"SFS","strong",5,8,"Slow",NA,NA,0,"NC",1,1,3.867,95
"4_36","51",2,4,"SFS","strong",6,13,"Slow",NA,NA,0,"C",1,0,4.239,95
"4_36","51",2,4,"SFS","strong",7,5,"Slow",NA,NA,0,"C",3,1,4.853,100
"4_36","51",2,4,"SFS","strong",8,1,"Slow",NA,NA,0,"NC",1,1,6.238,100
"4_36","51",2,4,"SFS","strong",9,2,"Slow",NA,NA,0,"NC",4,0,10.356,100
"4_36","51",2,4,"SFS","strong",10,20,"Slow",NA,NA,0,"C",1,0,3.533,95
"4_36","51",2,4,"SFS","strong",11,12,"Fast",0,1,0,"NC",1,1,3.236,95
"4_36","51",2,4,"SFS","strong",12,18,"Fast",1,0,1,"NC",NA,1,5.035,NA
"4_36","51",2,4,"SFS","strong",13,17,"Fast",0,1,0,"C",1,0,3.102,90
"4_36","51",2,4,"SFS","strong",14,4,"Fast",0,1,0,"C",1,0,2.185,50
"4_36","51",2,4,"SFS","strong",15,9,"Fast",0,1,0,"C",1,0,4.006,50
"4_36","51",2,4,"SFS","strong",16,7,"Fast",0,0,1,"NC",1,1,3.688,60
"4_36","51",2,4,"SFS","strong",17,14,"Fast",0,1,0,"C",1,0,2.353,75
"4_36","51",2,4,"SFS","strong",18,6,"Fast",0,1,0,"NC",1,1,2.552,95
"4_36","51",2,4,"SFS","strong",19,10,"Fast",0,1,0,"C",2,0,2.084,30
"4_36","51",2,4,"SFS","strong",20,11,"Fast",0,1,0,"NC",1,1,3.402,30
"4_37","36",1,3,"FSW","weak",1,5,"Fast",1,0,1,"NC",NA,0,5.239,NA
"4_37","36",1,3,"FSW","weak",2,8,"Fast",0,1,0,"NC",1,1,3.639,100
"4_37","36",1,3,"FSW","weak",3,11,"Fast",0,0,1,"C",2,0,2.029,50
"4_37","36",1,3,"FSW","weak",4,12,"Fast",0,0,1,"NC",2,0,4.076,10
"4_37","36",1,3,"FSW","weak",5,2,"Fast",0,0,1,"C",1,0,4.703,100
"4_37","36",1,3,"FSW","weak",6,15,"Fast",0,0,1,"C",1,0,4.064,100
"4_37","36",1,3,"FSW","weak",7,1,"Fast",0,0,1,"NC",1,1,4.239,10
"4_37","36",1,3,"FSW","weak",8,6,"Fast",0,1,0,"C",1,0,3.778,10
"4_37","36",1,3,"FSW","weak",9,10,"Fast",0,0,1,"NC",2,0,3.307,100
"4_37","36",1,3,"FSW","weak",10,19,"Fast",0,1,0,"C",3,1,4.622,10
"4_37","36",1,3,"FSW","weak",11,13,"Slow",NA,NA,0,"C",1,0,1.702,10
"4_37","36",1,3,"FSW","weak",12,4,"Slow",NA,NA,0,"NC",1,1,2.527,100
"4_37","36",1,3,"FSW","weak",13,7,"Slow",NA,NA,0,"NC",1,1,3.651,100
"4_37","36",1,3,"FSW","weak",14,3,"Slow",NA,NA,0,"C",1,0,2.449,100
"4_37","36",1,3,"FSW","weak",15,16,"Slow",NA,NA,0,"NC",1,1,2.675,100
"4_37","36",1,3,"FSW","weak",16,17,"Slow",NA,NA,0,"C",2,0,5.042,10
"4_37","36",1,3,"FSW","weak",17,14,"Slow",NA,NA,0,"NC",1,1,1.982,100
"4_37","36",1,3,"FSW","weak",18,20,"Slow",NA,NA,0,"C",2,0,3.403,50
"4_37","36",1,3,"FSW","weak",19,9,"Slow",NA,NA,0,"NC",1,1,3.699,50
"4_37","36",1,3,"FSW","weak",20,18,"Slow",NA,NA,0,"C",1,0,3.138,100
"4_38","42",2,3,"FSW","weak",1,6,"Fast",0,1,0,"NC",1,1,2.949,75
"4_38","42",2,3,"FSW","weak",2,2,"Fast",0,1,0,"C",4,0,2.333,100
"4_38","42",2,3,"FSW","weak",3,3,"Fast",0,1,0,"NC",1,1,2.638,100
"4_38","42",2,3,"FSW","weak",4,4,"Fast",0,1,0,"NC",4,0,2.75,100
"4_38","42",2,3,"FSW","weak",5,15,"Fast",0,1,0,"C",1,0,3.119,100
"4_38","42",2,3,"FSW","weak",6,20,"Fast",0,1,0,"NC",1,1,2.333,100
"4_38","42",2,3,"FSW","weak",7,9,"Fast",1,1,1,"C",NA,1,5.151,NA
"4_38","42",2,3,"FSW","weak",8,11,"Fast",0,1,0,"C",1,0,1.583,75
"4_38","42",2,3,"FSW","weak",9,10,"Fast",0,1,0,"NC",4,0,2.9,100
"4_38","42",2,3,"FSW","weak",10,19,"Fast",0,1,0,"C",3,1,3.783,50
"4_38","42",2,3,"FSW","weak",11,17,"Slow",NA,NA,0,"NC",1,1,2.435,100
"4_38","42",2,3,"FSW","weak",12,13,"Slow",NA,NA,0,"C",1,0,2.016,100
"4_38","42",2,3,"FSW","weak",13,5,"Slow",NA,NA,0,"NC",4,0,2.034,100
"4_38","42",2,3,"FSW","weak",14,8,"Slow",NA,NA,0,"NC",1,1,3.104,100
"4_38","42",2,3,"FSW","weak",15,12,"Slow",NA,NA,0,"C",4,0,3.169,100
"4_38","42",2,3,"FSW","weak",16,1,"Slow",NA,NA,0,"C",1,0,3.132,50
"4_38","42",2,3,"FSW","weak",17,14,"Slow",NA,NA,0,"C",1,0,2.782,75
"4_38","42",2,3,"FSW","weak",18,18,"Slow",NA,NA,0,"NC",4,0,4.067,100
"4_38","42",2,3,"FSW","weak",19,16,"Slow",NA,NA,0,"C",1,0,3.15,100
"4_38","42",2,3,"FSW","weak",20,7,"Slow",NA,NA,0,"NC",1,1,2.821,100
"4_39","67",1,2,"SFW","weak",1,12,"Slow",NA,NA,0,"C",1,0,4.463,100
"4_39","67",1,2,"SFW","weak",2,6,"Slow",NA,NA,0,"NC",1,1,6.111,100
"4_39","67",1,2,"SFW","weak",3,14,"Slow",NA,NA,0,"NC",1,1,3.748,100
"4_39","67",1,2,"SFW","weak",4,18,"Slow",NA,NA,0,"NC",1,1,5.809,100
"4_39","67",1,2,"SFW","weak",5,1,"Slow",NA,NA,0,"NC",1,1,4.213,100
"4_39","67",1,2,"SFW","weak",6,10,"Slow",NA,NA,0,"NC",1,1,10.125,100
"4_39","67",1,2,"SFW","weak",7,13,"Slow",NA,NA,0,"C",3,1,8.342,100
"4_39","67",1,2,"SFW","weak",8,19,"Slow",NA,NA,0,"C",3,1,11.921,50
"4_39","67",1,2,"SFW","weak",9,4,"Slow",NA,NA,0,"C",3,1,5.647,100
"4_39","67",1,2,"SFW","weak",10,2,"Slow",NA,NA,0,"C",3,1,5.696,100
"4_39","67",1,2,"SFW","weak",11,17,"Fast",1,1,1,"C",NA,1,5.029,NA
"4_39","67",1,2,"SFW","weak",12,20,"Fast",0,1,0,"NC",1,1,4.199,100
"4_39","67",1,2,"SFW","weak",13,5,"Fast",1,1,1,"NC",NA,1,5.031,NA
"4_39","67",1,2,"SFW","weak",14,7,"Fast",0,1,0,"NC",1,1,2.946,100
"4_39","67",1,2,"SFW","weak",15,11,"Fast",1,1,1,"NC",NA,1,5.03,NA
"4_39","67",1,2,"SFW","weak",16,16,"Fast",0,0,1,"NC",1,1,2.946,100
"4_39","67",1,2,"SFW","weak",17,9,"Fast",0,1,0,"C",3,1,4.196,100
"4_39","67",1,2,"SFW","weak",18,8,"Fast",0,0,1,"C",1,0,4.53,50
"4_39","67",1,2,"SFW","weak",19,3,"Fast",0,1,0,"C",3,1,3.147,100
"4_39","67",1,2,"SFW","weak",20,15,"Fast",0,0,1,"C",3,1,4.395,100
"4_40","66",2,3,"SFS","strong",1,7,"Slow",NA,NA,0,"C",3,1,19.099,100
"4_40","66",2,3,"SFS","strong",2,8,"Slow",NA,NA,0,"C",1,0,8.784,100
"4_40","66",2,3,"SFS","strong",3,20,"Slow",NA,NA,0,"C",1,0,7.849,100
"4_40","66",2,3,"SFS","strong",4,10,"Slow",NA,NA,0,"C",3,1,16.066,100
"4_40","66",2,3,"SFS","strong",5,14,"Slow",NA,NA,0,"C",1,0,9.583,100
"4_40","66",2,3,"SFS","strong",6,11,"Slow",NA,NA,0,"NC",1,1,9.983,100
"4_40","66",2,3,"SFS","strong",7,13,"Slow",NA,NA,0,"NC",1,1,12.882,98
"4_40","66",2,3,"SFS","strong",8,19,"Slow",NA,NA,0,"NC",3,0,35.542,95
"4_40","66",2,3,"SFS","strong",9,3,"Slow",NA,NA,0,"NC",1,1,6.233,100
"4_40","66",2,3,"SFS","strong",10,9,"Slow",NA,NA,0,"NC",1,1,8.451,100
"4_40","66",2,3,"SFS","strong",11,17,"Fast",0,1,0,"NC",1,1,4.8,100
"4_40","66",2,3,"SFS","strong",12,15,"Fast",1,1,1,"C",NA,1,5.034,NA
"4_40","66",2,3,"SFS","strong",13,4,"Fast",0,0,1,"NC",1,1,3.216,100
"4_40","66",2,3,"SFS","strong",14,18,"Fast",0,1,0,"NC",1,1,4.101,100
"4_40","66",2,3,"SFS","strong",15,2,"Fast",1,1,1,"C",NA,1,5.033,NA
"4_40","66",2,3,"SFS","strong",16,1,"Fast",0,1,0,"NC",1,1,3.316,100
"4_40","66",2,3,"SFS","strong",17,6,"Fast",0,1,0,"C",1,0,4.4,100
"4_40","66",2,3,"SFS","strong",18,16,"Fast",0,1,0,"C",1,0,4.668,100
"4_40","66",2,3,"SFS","strong",19,5,"Fast",0,1,0,"NC",1,1,4.517,100
"4_40","66",2,3,"SFS","strong",20,12,"Fast",0,1,0,"C",1,0,3.467,100
"4_41","28",2,3,"FSS","strong",1,12,"Fast",0,1,0,"NC",1,1,2.497,100
"4_41","28",2,3,"FSS","strong",2,9,"Fast",0,1,0,"NC",1,1,3.32,100
"4_41","28",2,3,"FSS","strong",3,5,"Fast",0,0,1,"C",3,1,4.984,100
"4_41","28",2,3,"FSS","strong",4,4,"Fast",0,1,0,"C",1,0,3.367,95
"4_41","28",2,3,"FSS","strong",5,3,"Fast",0,1,0,"C",1,0,1.934,100
"4_41","28",2,3,"FSS","strong",6,7,"Fast",0,1,0,"NC",1,1,2.966,100
"4_41","28",2,3,"FSS","strong",7,18,"Fast",1,1,1,"NC",NA,1,5.036,NA
"4_41","28",2,3,"FSS","strong",8,14,"Fast",0,0,1,"C",1,0,2.571,90
"4_41","28",2,3,"FSS","strong",9,1,"Fast",0,1,0,"NC",1,1,1.651,100
"4_41","28",2,3,"FSS","strong",10,2,"Fast",0,1,0,"C",1,0,2.852,100
"4_41","28",2,3,"FSS","strong",11,20,"Slow",NA,NA,0,"NC",1,1,3.535,100
"4_41","28",2,3,"FSS","strong",12,19,"Slow",NA,NA,0,"NC",1,1,3.318,100
"4_41","28",2,3,"FSS","strong",13,11,"Slow",NA,NA,0,"C",1,0,3.003,100
"4_41","28",2,3,"FSS","strong",14,13,"Slow",NA,NA,0,"C",1,0,2.402,100
"4_41","28",2,3,"FSS","strong",15,16,"Slow",NA,NA,0,"NC",1,1,2.152,100
"4_41","28",2,3,"FSS","strong",16,15,"Slow",NA,NA,0,"C",1,0,1.385,100
"4_41","28",2,3,"FSS","strong",17,10,"Slow",NA,NA,0,"NC",1,1,4.436,100
"4_41","28",2,3,"FSS","strong",18,8,"Slow",NA,NA,0,"C",1,0,2.998,100
"4_41","28",2,3,"FSS","strong",19,6,"Slow",NA,NA,0,"C",1,0,2.336,100
"4_41","28",2,3,"FSS","strong",20,17,"Slow",NA,NA,0,"NC",1,1,2.349,100
"4_42","34",1,3,"FSS","strong",1,12,"Fast",0,1,0,"C",1,0,5.001,5
"4_42","34",1,3,"FSS","strong",2,9,"Fast",0,1,0,"C",3,1,4.2,100
"4_42","34",1,3,"FSS","strong",3,5,"Fast",0,0,1,"NC",1,1,4.715,95
"4_42","34",1,3,"FSS","strong",4,8,"Fast",0,1,0,"C",3,1,4.78,100
"4_42","34",1,3,"FSS","strong",5,20,"Fast",1,1,1,"NC",NA,1,5.029,NA
"4_42","34",1,3,"FSS","strong",6,11,"Fast",0,1,0,"NC",1,1,3.8,75
"4_42","34",1,3,"FSS","strong",7,6,"Fast",0,1,0,"NC",1,1,3.337,100
"4_42","34",1,3,"FSS","strong",8,1,"Fast",0,0,1,"C",3,1,4.743,99
"4_42","34",1,3,"FSS","strong",9,10,"Fast",1,1,1,"C",NA,1,5.036,NA
"4_42","34",1,3,"FSS","strong",10,15,"Fast",0,1,0,"NC",1,1,3.6,100
"4_42","34",1,3,"FSS","strong",11,13,"Slow",NA,NA,0,"C",3,1,4.652,100
"4_42","34",1,3,"FSS","strong",12,3,"Slow",NA,NA,0,"C",3,1,8.582,90
"4_42","34",1,3,"FSS","strong",13,18,"Slow",NA,NA,0,"NC",1,1,8.04,100
"4_42","34",1,3,"FSS","strong",14,2,"Slow",NA,NA,0,"C",3,1,5.622,100
"4_42","34",1,3,"FSS","strong",15,4,"Slow",NA,NA,0,"NC",1,1,8.269,100
"4_42","34",1,3,"FSS","strong",16,14,"Slow",NA,NA,0,"C",1,0,6.153,85
"4_42","34",1,3,"FSS","strong",17,19,"Slow",NA,NA,0,"NC",1,1,9.62,100
"4_42","34",1,3,"FSS","strong",18,7,"Slow",NA,NA,0,"NC",1,1,6.836,100
"4_42","34",1,3,"FSS","strong",19,17,"Slow",NA,NA,0,"C",3,1,5.471,100
"4_42","34",1,3,"FSS","strong",20,16,"Slow",NA,NA,0,"NC",1,1,4.786,100
"4_43","52",1,3,"FSS","strong",1,12,"Fast",0,0,1,"NC",2,0,3.267,100
"4_43","52",1,3,"FSS","strong",2,16,"Fast",0,0,1,"NC",1,1,4.467,20
"4_43","52",1,3,"FSS","strong",3,9,"Fast",0,0,1,"C",1,0,4.968,0
"4_43","52",1,3,"FSS","strong",4,2,"Fast",0,1,0,"C",1,0,4.786,100
"4_43","52",1,3,"FSS","strong",5,18,"Fast",0,1,0,"C",2,0,4.469,0
"4_43","52",1,3,"FSS","strong",6,11,"Fast",0,1,0,"C",1,0,3.917,100
"4_43","52",1,3,"FSS","strong",7,20,"Fast",0,0,1,"NC",1,1,4.349,100
"4_43","52",1,3,"FSS","strong",8,6,"Fast",1,1,1,"NC",NA,1,5.052,NA
"4_43","52",1,3,"FSS","strong",9,1,"Fast",0,0,1,"C",2,0,3.316,10
"4_43","52",1,3,"FSS","strong",10,15,"Fast",0,1,0,"NC",1,1,3.449,100
"4_43","52",1,3,"FSS","strong",11,17,"Slow",NA,NA,0,"C",1,0,48.604,100
"4_43","52",1,3,"FSS","strong",12,8,"Slow",NA,NA,0,"NC",1,1,19.951,80
"4_43","52",1,3,"FSS","strong",13,3,"Slow",NA,NA,0,"NC",4,0,16.468,100
"4_43","52",1,3,"FSS","strong",14,10,"Slow",NA,NA,0,"C",4,0,5.818,100
"4_43","52",1,3,"FSS","strong",15,7,"Slow",NA,NA,0,"NC",4,0,18.45,100
"4_43","52",1,3,"FSS","strong",16,5,"Slow",NA,NA,0,"NC",2,0,40.402,80
"4_43","52",1,3,"FSS","strong",17,13,"Slow",NA,NA,0,"C",3,1,23.602,100
"4_43","52",1,3,"FSS","strong",18,19,"Slow",NA,NA,0,"C",3,1,36.27,100
"4_43","52",1,3,"FSS","strong",19,14,"Slow",NA,NA,0,"C",1,0,4.484,100
"4_43","52",1,3,"FSS","strong",20,4,"Slow",NA,NA,0,"NC",4,0,35.587,100
"4_44","31",2,5,"SFS","strong",1,18,"Slow",NA,NA,0,"C",3,1,4.953,100
"4_44","31",2,5,"SFS","strong",2,17,"Slow",NA,NA,0,"NC",1,1,1.837,100
"4_44","31",2,5,"SFS","strong",3,8,"Slow",NA,NA,0,"C",1,0,5.752,100
"4_44","31",2,5,"SFS","strong",4,19,"Slow",NA,NA,0,"C",3,1,10.887,50
"4_44","31",2,5,"SFS","strong",5,7,"Slow",NA,NA,0,"NC",1,1,3.182,100
"4_44","31",2,5,"SFS","strong",6,11,"Slow",NA,NA,0,"NC",1,1,3.234,100
"4_44","31",2,5,"SFS","strong",7,2,"Slow",NA,NA,0,"C",4,0,5.254,0
"4_44","31",2,5,"SFS","strong",8,20,"Slow",NA,NA,0,"NC",1,1,2.15,100
"4_44","31",2,5,"SFS","strong",9,1,"Slow",NA,NA,0,"C",3,1,4.218,100
"4_44","31",2,5,"SFS","strong",10,13,"Slow",NA,NA,0,"NC",1,1,1.651,100
"4_44","31",2,5,"SFS","strong",11,3,"Fast",0,1,0,"NC",1,1,2.134,100
"4_44","31",2,5,"SFS","strong",12,10,"Fast",0,1,0,"C",3,1,2.567,100
"4_44","31",2,5,"SFS","strong",13,9,"Fast",0,1,0,"C",1,0,2.153,100
"4_44","31",2,5,"SFS","strong",14,14,"Fast",0,0,1,"C",1,0,2.735,100
"4_44","31",2,5,"SFS","strong",15,15,"Fast",0,1,0,"NC",1,1,1.4,100
"4_44","31",2,5,"SFS","strong",16,12,"Fast",0,1,0,"C",1,0,2.238,100
"4_44","31",2,5,"SFS","strong",17,16,"Fast",0,1,0,"NC",1,1,2.016,100
"4_44","31",2,5,"SFS","strong",18,4,"Fast",0,1,0,"NC",1,1,2.117,75
"4_44","31",2,5,"SFS","strong",19,5,"Fast",0,0,1,"C",3,1,3.52,100
"4_44","31",2,5,"SFS","strong",20,6,"Fast",0,0,1,"NC",1,1,1.817,100
"4_45","75",2,3,"FSW","weak",1,15,"Fast",0,0,1,"C",1,0,4.979,90
"4_45","75",2,3,"FSW","weak",2,6,"Fast",1,1,1,"NC",NA,0,5.029,NA
"4_45","75",2,3,"FSW","weak",3,18,"Fast",0,0,1,"C",1,0,4.529,60
"4_45","75",2,3,"FSW","weak",4,13,"Fast",0,0,1,"NC",1,1,3.08,90
"4_45","75",2,3,"FSW","weak",5,3,"Fast",0,0,1,"NC",1,1,2.914,90
"4_45","75",2,3,"FSW","weak",6,12,"Fast",0,1,0,"C",1,0,2.464,90
"4_45","75",2,3,"FSW","weak",7,10,"Fast",0,1,0,"C",2,0,3.446,90
"4_45","75",2,3,"FSW","weak",8,19,"Fast",0,0,1,"C",1,0,3.696,0
"4_45","75",2,3,"FSW","weak",9,4,"Fast",0,1,0,"NC",1,1,3.33,90
"4_45","75",2,3,"FSW","weak",10,1,"Fast",0,1,0,"NC",1,1,3.347,90
"4_45","75",2,3,"FSW","weak",11,20,"Slow",NA,NA,0,"C",1,0,4.079,100
"4_45","75",2,3,"FSW","weak",12,16,"Slow",NA,NA,0,"C",3,1,12.154,0
"4_45","75",2,3,"FSW","weak",13,5,"Slow",NA,NA,0,"NC",1,1,6.76,50
"4_45","75",2,3,"FSW","weak",14,17,"Slow",NA,NA,0,"C",3,1,7.192,100
"4_45","75",2,3,"FSW","weak",15,8,"Slow",NA,NA,0,"C",4,0,8.707,0
"4_45","75",2,3,"FSW","weak",16,9,"Slow",NA,NA,0,"NC",1,1,9.242,100
"4_45","75",2,3,"FSW","weak",17,14,"Slow",NA,NA,0,"NC",1,1,5.328,100
"4_45","75",2,3,"FSW","weak",18,2,"Slow",NA,NA,0,"C",4,0,3.812,0
"4_45","75",2,3,"FSW","weak",19,11,"Slow",NA,NA,0,"NC",1,1,5.378,100
"4_45","75",2,3,"FSW","weak",20,7,"Slow",NA,NA,0,"NC",1,1,7.325,100
"4_46","41",1,2,"FSW","weak",1,18,"Fast",0,1,0,"NC",2,0,3.762,20
"4_46","41",1,2,"FSW","weak",2,3,"Fast",0,0,1,"C",1,0,4.363,50
"4_46","41",1,2,"FSW","weak",3,17,"Fast",0,1,0,"NC",1,1,3.111,100
"4_46","41",1,2,"FSW","weak",4,1,"Fast",0,1,0,"C",1,0,2.775,100
"4_46","41",1,2,"FSW","weak",5,5,"Fast",0,1,0,"C",1,0,2.758,100
"4_46","41",1,2,"FSW","weak",6,13,"Fast",0,1,0,"NC",1,1,4.246,100
"4_46","41",1,2,"FSW","weak",7,9,"Fast",0,1,0,"NC",1,1,3.678,100
"4_46","41",1,2,"FSW","weak",8,7,"Fast",0,0,1,"C",1,0,3.828,100
"4_46","41",1,2,"FSW","weak",9,12,"Fast",0,1,0,"NC",1,1,3.728,100
"4_46","41",1,2,"FSW","weak",10,4,"Fast",0,1,0,"C",2,0,2.976,100
"4_46","41",1,2,"FSW","weak",11,2,"Slow",NA,NA,0,"NC",1,1,3.143,100
"4_46","41",1,2,"FSW","weak",12,15,"Slow",NA,NA,0,"NC",1,1,3.243,100
"4_46","41",1,2,"FSW","weak",13,16,"Slow",NA,NA,0,"C",1,0,2.541,100
"4_46","41",1,2,"FSW","weak",14,10,"Slow",NA,NA,0,"NC",1,1,6.554,100
"4_46","41",1,2,"FSW","weak",15,14,"Slow",NA,NA,0,"C",1,0,5.884,100
"4_46","41",1,2,"FSW","weak",16,11,"Slow",NA,NA,0,"NC",1,1,4.48,80
"4_46","41",1,2,"FSW","weak",17,6,"Slow",NA,NA,0,"C",4,0,4.898,100
"4_46","41",1,2,"FSW","weak",18,8,"Slow",NA,NA,0,"C",1,0,6.302,100
"4_46","41",1,2,"FSW","weak",19,20,"Slow",NA,NA,0,"NC",1,1,2.942,100
"4_46","41",1,2,"FSW","weak",20,19,"Slow",NA,NA,0,"C",4,0,8.024,100
"4_47","39",2,2,"SFW","weak",1,2,"Slow",NA,NA,0,"C",3,1,6.4,100
"4_47","39",2,2,"SFW","weak",2,7,"Slow",NA,NA,0,"C",3,1,11.916,100
"4_47","39",2,2,"SFW","weak",3,9,"Slow",NA,NA,0,"NC",1,1,7.693,90
"4_47","39",2,2,"SFW","weak",4,5,"Slow",NA,NA,0,"NC",1,1,4.629,90
"4_47","39",2,2,"SFW","weak",5,6,"Slow",NA,NA,0,"C",1,0,18.029,80
"4_47","39",2,2,"SFW","weak",6,4,"Slow",NA,NA,0,"NC",1,1,4.479,78
"4_47","39",2,2,"SFW","weak",7,17,"Slow",NA,NA,0,"C",3,1,15.445,65
"4_47","39",2,2,"SFW","weak",8,20,"Slow",NA,NA,0,"NC",1,1,5.294,100
"4_47","39",2,2,"SFW","weak",9,13,"Slow",NA,NA,0,"NC",1,1,4.079,100
"4_47","39",2,2,"SFW","weak",10,15,"Slow",NA,NA,0,"C",3,1,15.496,70
"4_47","39",2,2,"SFW","weak",11,19,"Fast",1,0,1,"NC",NA,1,5.142,NA
"4_47","39",2,2,"SFW","weak",12,16,"Fast",1,1,1,"C",NA,1,5.104,NA
"4_47","39",2,2,"SFW","weak",13,18,"Fast",1,1,1,"C",NA,1,5.087,NA
"4_47","39",2,2,"SFW","weak",14,14,"Fast",0,1,0,"NC",1,1,4.221,100
"4_47","39",2,2,"SFW","weak",15,8,"Fast",0,1,0,"C",3,1,3.913,50
"4_47","39",2,2,"SFW","weak",16,11,"Fast",0,1,0,"NC",1,1,4.435,65
"4_47","39",2,2,"SFW","weak",17,12,"Fast",0,1,0,"C",1,0,3.378,100
"4_47","39",2,2,"SFW","weak",18,10,"Fast",1,0,1,"C",NA,0,5.104,NA
"4_47","39",2,2,"SFW","weak",19,3,"Fast",0,0,1,"NC",1,1,3.221,100
"4_47","39",2,2,"SFW","weak",20,1,"Fast",1,1,1,"NC",NA,1,5.098,NA
"4_48","35",1,3,"FSS","strong",1,18,"Fast",1,1,1,"C",NA,0,5.05,NA
"4_48","35",1,3,"FSS","strong",2,20,"Fast",0,1,0,"C",1,0,2.098,100
"4_48","35",1,3,"FSS","strong",3,13,"Fast",0,1,0,"C",3,1,3.598,100
"4_48","35",1,3,"FSS","strong",4,2,"Fast",0,0,1,"NC",1,1,2.347,80
"4_48","35",1,3,"FSS","strong",5,11,"Fast",0,1,0,"C",1,0,4.598,85
"4_48","35",1,3,"FSS","strong",6,10,"Fast",0,1,0,"NC",2,0,3.143,0
"4_48","35",1,3,"FSS","strong",7,5,"Fast",0,1,0,"NC",1,1,3.633,95
"4_48","35",1,3,"FSS","strong",8,8,"Fast",0,1,0,"NC",1,1,3.131,100
"4_48","35",1,3,"FSS","strong",9,15,"Fast",0,1,0,"C",1,0,3.504,100
"4_48","35",1,3,"FSS","strong",10,4,"Fast",0,1,0,"NC",3,0,3.07,90
"4_48","35",1,3,"FSS","strong",11,19,"Slow",NA,NA,0,"C",2,0,13.004,65
"4_48","35",1,3,"FSS","strong",12,9,"Slow",NA,NA,0,"C",1,0,3.768,90
"4_48","35",1,3,"FSS","strong",13,1,"Slow",NA,NA,0,"NC",1,1,5.316,85
"4_48","35",1,3,"FSS","strong",14,17,"Slow",NA,NA,0,"NC",1,1,7.133,99
"4_48","35",1,3,"FSS","strong",15,6,"Slow",NA,NA,0,"NC",1,1,3.55,100
"4_48","35",1,3,"FSS","strong",16,12,"Slow",NA,NA,0,"C",3,1,7.103,98
"4_48","35",1,3,"FSS","strong",17,14,"Slow",NA,NA,0,"C",1,0,3.817,90
"4_48","35",1,3,"FSS","strong",18,3,"Slow",NA,NA,0,"NC",1,1,2.483,98
"4_48","35",1,3,"FSS","strong",19,16,"Slow",NA,NA,0,"NC",1,1,3.701,98
"4_48","35",1,3,"FSS","strong",20,7,"Slow",NA,NA,0,"C",3,1,11.061,99
"4_49","30",1,2,"FSW","weak",1,7,"Fast",0,1,0,"NC",1,1,3.487,100
"4_49","30",1,2,"FSW","weak",2,2,"Fast",0,1,0,"C",1,0,2.736,0
"4_49","30",1,2,"FSW","weak",3,17,"Fast",0,1,0,"C",3,1,5.023,100
"4_49","30",1,2,"FSW","weak",4,11,"Fast",0,1,0,"NC",1,1,3.287,100
"4_49","30",1,2,"FSW","weak",5,9,"Fast",0,1,0,"NC",1,1,3.119,100
"4_49","30",1,2,"FSW","weak",6,12,"Fast",0,1,0,"C",1,0,3.42,100
"4_49","30",1,2,"FSW","weak",7,6,"Fast",0,1,0,"C",1,0,3.937,100
"4_49","30",1,2,"FSW","weak",8,8,"Fast",0,1,0,"NC",1,1,3.504,100
"4_49","30",1,2,"FSW","weak",9,14,"Fast",0,1,0,"NC",1,1,3.136,100
"4_49","30",1,2,"FSW","weak",10,5,"Fast",0,1,0,"C",3,1,3.454,100
"4_49","30",1,2,"FSW","weak",11,20,"Slow",NA,NA,0,"NC",1,1,5.973,100
"4_49","30",1,2,"FSW","weak",12,3,"Slow",NA,NA,0,"NC",4,0,5.639,100
"4_49","30",1,2,"FSW","weak",13,18,"Slow",NA,NA,0,"C",3,1,3.987,100
"4_49","30",1,2,"FSW","weak",14,4,"Slow",NA,NA,0,"C",3,1,3.637,100
"4_49","30",1,2,"FSW","weak",15,15,"Slow",NA,NA,0,"C",1,0,7.524,100
"4_49","30",1,2,"FSW","weak",16,19,"Slow",NA,NA,0,"NC",1,1,4.622,100
"4_49","30",1,2,"FSW","weak",17,1,"Slow",NA,NA,0,"NC",1,1,4.721,100
"4_49","30",1,2,"FSW","weak",18,16,"Slow",NA,NA,0,"C",3,1,6.056,100
"4_49","30",1,2,"FSW","weak",19,10,"Slow",NA,NA,0,"C",1,0,30.513,50
"4_49","30",1,2,"FSW","weak",20,13,"Slow",NA,NA,0,"NC",1,1,4.037,100
"4_50","54",1,3,"FSW","weak",1,7,"Fast",0,1,0,"NC",1,1,2.136,98
"4_50","54",1,3,"FSW","weak",2,14,"Fast",0,1,0,"C",1,0,2.823,98
"4_50","54",1,3,"FSW","weak",3,18,"Fast",0,1,0,"C",1,0,4.672,99
"4_50","54",1,3,"FSW","weak",4,17,"Fast",0,1,0,"NC",1,1,2.295,99
"4_50","54",1,3,"FSW","weak",5,8,"Fast",0,1,0,"NC",1,1,3.258,95
"4_50","54",1,3,"FSW","weak",6,3,"Fast",0,1,0,"C",1,0,1.976,98
"4_50","54",1,3,"FSW","weak",7,2,"Fast",0,0,1,"C",1,0,4.016,67
"4_50","54",1,3,"FSW","weak",8,1,"Fast",0,1,0,"NC",1,1,1.912,98
"4_50","54",1,3,"FSW","weak",9,12,"Fast",0,1,0,"C",1,0,2.032,99
"4_50","54",1,3,"FSW","weak",10,19,"Fast",0,1,0,"NC",1,1,2.023,99
"4_50","54",1,3,"FSW","weak",11,6,"Slow",NA,NA,0,"C",1,0,3.011,99
"4_50","54",1,3,"FSW","weak",12,15,"Slow",NA,NA,0,"NC",1,1,2.65,99
"4_50","54",1,3,"FSW","weak",13,20,"Slow",NA,NA,0,"NC",1,1,2.482,98
"4_50","54",1,3,"FSW","weak",14,9,"Slow",NA,NA,0,"NC",1,1,3.88,98
"4_50","54",1,3,"FSW","weak",15,10,"Slow",NA,NA,0,"NC",1,1,3.595,98
"4_50","54",1,3,"FSW","weak",16,16,"Slow",NA,NA,0,"NC",1,1,2.002,99
"4_50","54",1,3,"FSW","weak",17,13,"Slow",NA,NA,0,"C",3,1,2.787,100
"4_50","54",1,3,"FSW","weak",18,5,"Slow",NA,NA,0,"C",3,1,4.415,98
"4_50","54",1,3,"FSW","weak",19,11,"Slow",NA,NA,0,"C",1,0,4.339,97
"4_50","54",1,3,"FSW","weak",20,4,"Slow",NA,NA,0,"C",3,1,3.488,99
"4_51","61",2,3,"SFS","strong",1,7,"Slow",NA,NA,0,"NC",1,1,5.679,100
"4_51","61",2,3,"SFS","strong",2,8,"Slow",NA,NA,0,"NC",1,1,9.936,100
"4_51","61",2,3,"SFS","strong",3,6,"Slow",NA,NA,0,"C",3,1,23.049,100
"4_51","61",2,3,"SFS","strong",4,11,"Slow",NA,NA,0,"NC",1,1,7.63,100
"4_51","61",2,3,"SFS","strong",5,1,"Slow",NA,NA,0,"C",1,0,6.508,100
"4_51","61",2,3,"SFS","strong",6,16,"Slow",NA,NA,0,"C",3,1,9.07,100
"4_51","61",2,3,"SFS","strong",7,2,"Slow",NA,NA,0,"NC",3,0,12.258,90
"4_51","61",2,3,"SFS","strong",8,18,"Slow",NA,NA,0,"C",1,0,14.393,95
"4_51","61",2,3,"SFS","strong",9,15,"Slow",NA,NA,0,"C",3,1,10.511,100
"4_51","61",2,3,"SFS","strong",10,9,"Slow",NA,NA,0,"NC",1,1,7.204,100
"4_51","61",2,3,"SFS","strong",11,20,"Fast",0,0,1,"C",1,0,3.388,100
"4_51","61",2,3,"SFS","strong",12,13,"Fast",0,1,0,"NC",1,1,4.564,100
"4_51","61",2,3,"SFS","strong",13,4,"Fast",1,1,1,"NC",NA,1,5.015,NA
"4_51","61",2,3,"SFS","strong",14,10,"Fast",0,1,0,"NC",1,1,4.802,100
"4_51","61",2,3,"SFS","strong",15,19,"Fast",1,1,1,"C",NA,1,5.031,NA
"4_51","61",2,3,"SFS","strong",16,17,"Fast",0,1,0,"NC",1,1,3.587,100
"4_51","61",2,3,"SFS","strong",17,14,"Fast",0,1,0,"C",1,0,2.679,100
"4_51","61",2,3,"SFS","strong",18,3,"Fast",0,1,0,"C",1,0,3.147,95
"4_51","61",2,3,"SFS","strong",19,12,"Fast",0,1,0,"C",1,0,3.082,100
"4_51","61",2,3,"SFS","strong",20,5,"Fast",0,0,1,"NC",1,1,3.548,100
"4_52","25",1,3,"FSS","strong",1,14,"Fast",0,1,0,"NC",1,1,2.114,100
"4_52","25",1,3,"FSS","strong",2,17,"Fast",0,1,0,"C",1,0,1.975,100
"4_52","25",1,3,"FSS","strong",3,13,"Fast",0,1,0,"C",1,0,2.669,100
"4_52","25",1,3,"FSS","strong",4,1,"Fast",0,1,0,"C",1,0,2.868,100
"4_52","25",1,3,"FSS","strong",5,4,"Fast",0,1,0,"NC",2,0,2.717,50
"4_52","25",1,3,"FSS","strong",6,12,"Fast",0,1,0,"NC",1,1,2.526,100
"4_52","25",1,3,"FSS","strong",7,3,"Fast",1,0,1,"C",NA,1,5.036,NA
"4_52","25",1,3,"FSS","strong",8,20,"Fast",0,0,1,"NC",3,0,3.192,100
"4_52","25",1,3,"FSS","strong",9,15,"Fast",0,1,0,"NC",1,1,2.148,100
"4_52","25",1,3,"FSS","strong",10,16,"Fast",0,1,0,"C",1,0,2.37,100
"4_52","25",1,3,"FSS","strong",11,8,"Slow",NA,NA,0,"C",2,0,2.082,100
"4_52","25",1,3,"FSS","strong",12,11,"Slow",NA,NA,0,"NC",1,1,4.289,100
"4_52","25",1,3,"FSS","strong",13,19,"Slow",NA,NA,0,"C",3,1,8.313,100
"4_52","25",1,3,"FSS","strong",14,7,"Slow",NA,NA,0,"C",1,0,6.079,100
"4_52","25",1,3,"FSS","strong",15,5,"Slow",NA,NA,0,"C",1,0,3.167,100
"4_52","25",1,3,"FSS","strong",16,10,"Slow",NA,NA,0,"C",1,0,3.324,20
"4_52","25",1,3,"FSS","strong",17,2,"Slow",NA,NA,0,"NC",1,1,2.416,100
"4_52","25",1,3,"FSS","strong",18,9,"Slow",NA,NA,0,"NC",2,0,6.505,20
"4_52","25",1,3,"FSS","strong",19,18,"Slow",NA,NA,0,"NC",1,1,3.619,50
"4_52","25",1,3,"FSS","strong",20,6,"Slow",NA,NA,0,"NC",1,1,3.123,100
"4_53","43",2,3,"SFW","weak",1,12,"Slow",NA,NA,0,"C",1,0,2.868,95
"4_53","43",2,3,"SFW","weak",2,2,"Slow",NA,NA,0,"C",4,0,2.834,20
"4_53","43",2,3,"SFW","weak",3,10,"Slow",NA,NA,0,"NC",1,1,5.35,50
"4_53","43",2,3,"SFW","weak",4,17,"Slow",NA,NA,0,"NC",1,1,2.701,90
"4_53","43",2,3,"SFW","weak",5,8,"Slow",NA,NA,0,"C",3,1,11.983,100
"4_53","43",2,3,"SFW","weak",6,14,"Slow",NA,NA,0,"C",3,1,5.466,50
"4_53","43",2,3,"SFW","weak",7,18,"Slow",NA,NA,0,"NC",4,0,3.75,20
"4_53","43",2,3,"SFW","weak",8,7,"Slow",NA,NA,0,"NC",1,1,2.199,80
"4_53","43",2,3,"SFW","weak",9,16,"Slow",NA,NA,0,"C",3,1,5.35,80
"4_53","43",2,3,"SFW","weak",10,1,"Slow",NA,NA,0,"NC",3,0,4.482,50
"4_53","43",2,3,"SFW","weak",11,13,"Fast",0,1,0,"NC",1,1,2.698,60
"4_53","43",2,3,"SFW","weak",12,3,"Fast",0,1,0,"C",4,0,2.384,50
"4_53","43",2,3,"SFW","weak",13,5,"Fast",0,0,1,"NC",1,1,4.118,60
"4_53","43",2,3,"SFW","weak",14,6,"Fast",0,0,1,"C",1,0,2.317,95
"4_53","43",2,3,"SFW","weak",15,4,"Fast",0,1,0,"C",1,0,1.685,50
"4_53","43",2,3,"SFW","weak",16,15,"Fast",0,0,1,"NC",1,1,3.466,95
"4_53","43",2,3,"SFW","weak",17,9,"Fast",0,0,1,"NC",1,1,2.234,60
"4_53","43",2,3,"SFW","weak",18,11,"Fast",0,1,0,"NC",4,0,3.099,50
"4_53","43",2,3,"SFW","weak",19,20,"Fast",0,1,0,"C",1,0,2.818,95
"4_53","43",2,3,"SFW","weak",20,19,"Fast",0,1,0,"C",4,0,2.817,50
"4_54","32",2,2,"FSS","strong",1,16,"Fast",0,1,0,"C",2,0,2.928,50
"4_54","32",2,2,"FSS","strong",2,6,"Fast",0,1,0,"C",3,1,4.887,20
"4_54","32",2,2,"FSS","strong",3,3,"Fast",0,1,0,"NC",4,0,4.719,20
"4_54","32",2,2,"FSS","strong",4,5,"Fast",0,1,0,"NC",1,1,3.348,100
"4_54","32",2,2,"FSS","strong",5,12,"Fast",0,1,0,"NC",1,1,4.2,100
"4_54","32",2,2,"FSS","strong",6,18,"Fast",1,1,1,"C",NA,1,5.054,NA
"4_54","32",2,2,"FSS","strong",7,15,"Fast",0,0,1,"C",1,0,4.017,100
"4_54","32",2,2,"FSS","strong",8,8,"Fast",0,1,0,"NC",1,1,2.945,100
"4_54","32",2,2,"FSS","strong",9,14,"Fast",0,1,0,"NC",1,1,4.183,100
"4_54","32",2,2,"FSS","strong",10,11,"Fast",1,1,1,"C",NA,1,5.054,NA
"4_54","32",2,2,"FSS","strong",11,9,"Slow",NA,NA,0,"C",1,0,7.261,100
"4_54","32",2,2,"FSS","strong",12,7,"Slow",NA,NA,0,"NC",1,1,12.096,100
"4_54","32",2,2,"FSS","strong",13,13,"Slow",NA,NA,0,"C",1,0,6.392,100
"4_54","32",2,2,"FSS","strong",14,20,"Slow",NA,NA,0,"NC",1,1,3.831,100
"4_54","32",2,2,"FSS","strong",15,19,"Slow",NA,NA,0,"C",1,0,6.526,100
"4_54","32",2,2,"FSS","strong",16,1,"Slow",NA,NA,0,"C",1,0,3.413,90
"4_54","32",2,2,"FSS","strong",17,10,"Slow",NA,NA,0,"NC",1,1,6.878,100
"4_54","32",2,2,"FSS","strong",18,4,"Slow",NA,NA,0,"NC",1,1,9.121,70
"4_54","32",2,2,"FSS","strong",19,2,"Slow",NA,NA,0,"NC",1,1,5.372,30
"4_54","32",2,2,"FSS","strong",20,17,"Slow",NA,NA,0,"C",1,0,4.953,100
"4_55","63",1,3,"FSS","strong",1,16,"Fast",0,1,0,"C",1,0,2.969,100
"4_55","63",1,3,"FSS","strong",2,4,"Fast",0,1,0,"C",3,1,3.068,100
"4_55","63",1,3,"FSS","strong",3,5,"Fast",0,1,0,"C",3,1,3.55,100
"4_55","63",1,3,"FSS","strong",4,1,"Fast",0,0,1,"NC",1,1,2.967,100
"4_55","63",1,3,"FSS","strong",5,15,"Fast",0,1,0,"C",1,0,2.716,100
"4_55","63",1,3,"FSS","strong",6,13,"Fast",0,0,1,"NC",1,1,3.034,100
"4_55","63",1,3,"FSS","strong",7,10,"Fast",0,1,0,"NC",1,1,3.45,100
"4_55","63",1,3,"FSS","strong",8,12,"Fast",0,1,0,"C",1,0,2.833,0
"4_55","63",1,3,"FSS","strong",9,6,"Fast",0,1,0,"NC",1,1,3.217,100
"4_55","63",1,3,"FSS","strong",10,11,"Fast",0,1,0,"NC",1,1,3.482,100
"4_55","63",1,3,"FSS","strong",11,17,"Slow",NA,NA,0,"C",1,0,4.149,100
"4_55","63",1,3,"FSS","strong",12,14,"Slow",NA,NA,0,"C",1,0,2.815,100
"4_55","63",1,3,"FSS","strong",13,20,"Slow",NA,NA,0,"NC",1,1,6.017,100
"4_55","63",1,3,"FSS","strong",14,8,"Slow",NA,NA,0,"NC",1,1,8.516,100
"4_55","63",1,3,"FSS","strong",15,2,"Slow",NA,NA,0,"NC",1,1,15.717,100
"4_55","63",1,3,"FSS","strong",16,7,"Slow",NA,NA,0,"C",3,1,7.483,100
"4_55","63",1,3,"FSS","strong",17,19,"Slow",NA,NA,0,"C",4,0,16.732,0
"4_55","63",1,3,"FSS","strong",18,3,"Slow",NA,NA,0,"NC",1,1,6.383,100
"4_55","63",1,3,"FSS","strong",19,18,"Slow",NA,NA,0,"NC",1,1,7.666,100
"4_55","63",1,3,"FSS","strong",20,9,"Slow",NA,NA,0,"C",3,1,11.417,100
"4_56","77",1,3,"SFW","weak",1,19,"Slow",NA,NA,0,"C",3,1,16.735,50
"4_56","77",1,3,"SFW","weak",2,18,"Slow",NA,NA,0,"C",3,1,8.342,100
"4_56","77",1,3,"SFW","weak",3,17,"Slow",NA,NA,0,"C",3,1,7.577,100
"4_56","77",1,3,"SFW","weak",4,12,"Slow",NA,NA,0,"NC",1,1,6.194,100
"4_56","77",1,3,"SFW","weak",5,1,"Slow",NA,NA,0,"NC",1,1,6.944,100
"4_56","77",1,3,"SFW","weak",6,5,"Slow",NA,NA,0,"NC",1,1,10.275,100
"4_56","77",1,3,"SFW","weak",7,14,"Slow",NA,NA,0,"C",3,1,9.859,100
"4_56","77",1,3,"SFW","weak",8,4,"Slow",NA,NA,0,"NC",1,1,9.159,100
"4_56","77",1,3,"SFW","weak",9,9,"Slow",NA,NA,0,"NC",1,1,12.357,100
"4_56","77",1,3,"SFW","weak",10,20,"Slow",NA,NA,0,"C",3,1,7.827,100
"4_56","77",1,3,"SFW","weak",11,15,"Fast",0,1,0,"C",2,0,3.964,0
"4_56","77",1,3,"SFW","weak",12,6,"Fast",0,0,1,"NC",1,1,3.747,100
"4_56","77",1,3,"SFW","weak",13,3,"Fast",0,1,0,"C",3,1,4.248,100
"4_56","77",1,3,"SFW","weak",14,16,"Fast",0,0,1,"NC",2,0,2.981,0
"4_56","77",1,3,"SFW","weak",15,8,"Fast",1,1,1,"C",NA,0,5.062,NA
"4_56","77",1,3,"SFW","weak",16,13,"Fast",0,1,0,"NC",1,1,4.33,100
"4_56","77",1,3,"SFW","weak",17,7,"Fast",1,1,1,"C",NA,1,5.065,NA
"4_56","77",1,3,"SFW","weak",18,10,"Fast",0,1,0,"NC",2,0,3.88,0
"4_56","77",1,3,"SFW","weak",19,11,"Fast",0,1,0,"C",1,0,4.497,50
"4_56","77",1,3,"SFW","weak",20,2,"Fast",0,0,1,"NC",1,1,3.749,100
"4_57","28",2,2,"SFS","strong",1,13,"Slow",NA,NA,0,"C",1,0,2.776,100
"4_57","28",2,2,"SFS","strong",2,17,"Slow",NA,NA,0,"C",1,0,2.235,100
"4_57","28",2,2,"SFS","strong",3,12,"Slow",NA,NA,0,"NC",1,1,3.014,100
"4_57","28",2,2,"SFS","strong",4,6,"Slow",NA,NA,0,"NC",1,1,4.216,100
"4_57","28",2,2,"SFS","strong",5,5,"Slow",NA,NA,0,"C",1,0,3.25,100
"4_57","28",2,2,"SFS","strong",6,18,"Slow",NA,NA,0,"C",4,0,4.366,100
"4_57","28",2,2,"SFS","strong",7,11,"Slow",NA,NA,0,"C",1,0,6.165,100
"4_57","28",2,2,"SFS","strong",8,15,"Slow",NA,NA,0,"NC",1,1,3.506,100
"4_57","28",2,2,"SFS","strong",9,20,"Slow",NA,NA,0,"NC",3,0,4.877,100
"4_57","28",2,2,"SFS","strong",10,16,"Slow",NA,NA,0,"NC",1,1,2.271,100
"4_57","28",2,2,"SFS","strong",11,7,"Fast",0,1,0,"C",1,0,3.449,100
"4_57","28",2,2,"SFS","strong",12,4,"Fast",0,0,1,"NC",1,1,4.449,100
"4_57","28",2,2,"SFS","strong",13,8,"Fast",0,1,0,"C",1,0,2.156,100
"4_57","28",2,2,"SFS","strong",14,19,"Fast",0,1,0,"NC",1,1,2.954,100
"4_57","28",2,2,"SFS","strong",15,2,"Fast",0,1,0,"NC",1,1,4.46,100
"4_57","28",2,2,"SFS","strong",16,1,"Fast",0,1,0,"C",4,0,3.586,100
"4_57","28",2,2,"SFS","strong",17,3,"Fast",0,1,0,"NC",1,1,2.856,100
"4_57","28",2,2,"SFS","strong",18,14,"Fast",0,1,0,"C",1,0,2.224,100
"4_57","28",2,2,"SFS","strong",19,9,"Fast",0,1,0,"NC",1,1,4.496,100
"4_57","28",2,2,"SFS","strong",20,10,"Fast",0,1,0,"C",1,0,3.424,100
"4_58","28",2,5,"FSS","strong",1,2,"Fast",0,1,0,"NC",4,0,3.366,0
"4_58","28",2,5,"FSS","strong",2,14,"Fast",0,1,0,"NC",1,1,3.251,100
"4_58","28",2,5,"FSS","strong",3,15,"Fast",0,1,0,"C",1,0,3.798,100
"4_58","28",2,5,"FSS","strong",4,8,"Fast",1,0,1,"C",NA,0,5.035,NA
"4_58","28",2,5,"FSS","strong",5,12,"Fast",0,1,0,"NC",1,1,3.182,100
"4_58","28",2,5,"FSS","strong",6,3,"Fast",0,1,0,"C",4,0,3.566,0
"4_58","28",2,5,"FSS","strong",7,10,"Fast",0,1,0,"NC",2,0,3.467,60
"4_58","28",2,5,"FSS","strong",8,7,"Fast",0,1,0,"NC",1,1,3.136,100
"4_58","28",2,5,"FSS","strong",9,18,"Fast",0,1,0,"C",1,0,3.767,40
"4_58","28",2,5,"FSS","strong",10,11,"Fast",0,1,0,"C",1,0,4.132,60
"4_58","28",2,5,"FSS","strong",11,16,"Slow",NA,NA,0,"C",3,1,5.882,80
"4_58","28",2,5,"FSS","strong",12,6,"Slow",NA,NA,0,"C",1,0,2.679,100
"4_58","28",2,5,"FSS","strong",13,19,"Slow",NA,NA,0,"C",1,0,3.451,100
"4_58","28",2,5,"FSS","strong",14,17,"Slow",NA,NA,0,"C",1,0,5.031,80
"4_58","28",2,5,"FSS","strong",15,9,"Slow",NA,NA,0,"NC",1,1,2.317,100
"4_58","28",2,5,"FSS","strong",16,13,"Slow",NA,NA,0,"NC",1,1,2.816,40
"4_58","28",2,5,"FSS","strong",17,4,"Slow",NA,NA,0,"NC",2,0,3.798,20
"4_58","28",2,5,"FSS","strong",18,20,"Slow",NA,NA,0,"C",1,0,2.965,100
"4_58","28",2,5,"FSS","strong",19,5,"Slow",NA,NA,0,"NC",1,1,3.766,100
"4_58","28",2,5,"FSS","strong",20,1,"Slow",NA,NA,0,"NC",1,1,3.747,100
"4_59","41",2,3,"FSW","weak",1,12,"Fast",0,1,0,"NC",1,1,3.441,100
"4_59","41",2,3,"FSW","weak",2,6,"Fast",0,1,0,"C",1,0,2.593,100
"4_59","41",2,3,"FSW","weak",3,17,"Fast",0,1,0,"C",1,0,3.79,50
"4_59","41",2,3,"FSW","weak",4,18,"Fast",1,0,1,"NC",NA,0,5.037,NA
"4_59","41",2,3,"FSW","weak",5,3,"Fast",0,0,1,"NC",2,0,1.762,50
"4_59","41",2,3,"FSW","weak",6,2,"Fast",0,1,0,"C",1,0,2.443,0
"4_59","41",2,3,"FSW","weak",7,1,"Fast",0,1,0,"NC",1,1,2.709,50
"4_59","41",2,3,"FSW","weak",8,15,"Fast",0,1,0,"C",1,0,2.726,100
"4_59","41",2,3,"FSW","weak",9,20,"Fast",0,1,0,"NC",1,1,2.759,100
"4_59","41",2,3,"FSW","weak",10,8,"Fast",0,0,1,"C",4,0,4.24,0
"4_59","41",2,3,"FSW","weak",11,14,"Slow",NA,NA,0,"NC",1,1,2.61,100
"4_59","41",2,3,"FSW","weak",12,5,"Slow",NA,NA,0,"NC",1,1,2.327,100
"4_59","41",2,3,"FSW","weak",13,16,"Slow",NA,NA,0,"C",3,1,4.305,100
"4_59","41",2,3,"FSW","weak",14,4,"Slow",NA,NA,0,"C",3,1,4.604,100
"4_59","41",2,3,"FSW","weak",15,7,"Slow",NA,NA,0,"C",3,1,3.89,100
"4_59","41",2,3,"FSW","weak",16,10,"Slow",NA,NA,0,"C",4,0,3.856,0
"4_59","41",2,3,"FSW","weak",17,9,"Slow",NA,NA,0,"NC",1,1,2.576,100
"4_59","41",2,3,"FSW","weak",18,11,"Slow",NA,NA,0,"NC",1,1,3.641,100
"4_59","41",2,3,"FSW","weak",19,19,"Slow",NA,NA,0,"C",4,0,5.551,100
"4_59","41",2,3,"FSW","weak",20,13,"Slow",NA,NA,0,"NC",1,1,2.826,100
"4_60","71",2,2,"FSS","strong",1,2,"Fast",1,1,1,"C",NA,0,5.157,NA
"4_60","71",2,2,"FSS","strong",2,20,"Fast",1,1,1,"C",NA,0,5.153,NA
"4_60","71",2,2,"FSS","strong",3,16,"Fast",0,0,1,"NC",1,1,3.348,100
"4_60","71",2,2,"FSS","strong",4,6,"Fast",0,0,1,"C",2,0,4.767,0
"4_60","71",2,2,"FSS","strong",5,3,"Fast",0,1,0,"C",1,0,2.329,100
"4_60","71",2,2,"FSS","strong",6,18,"Fast",0,1,0,"NC",4,0,3.699,100
"4_60","71",2,2,"FSS","strong",7,15,"Fast",0,0,1,"NC",1,1,2.437,100
"4_60","71",2,2,"FSS","strong",8,5,"Fast",0,1,0,"NC",1,1,3.298,100
"4_60","71",2,2,"FSS","strong",9,19,"Fast",1,1,1,"C",NA,1,5.155,NA
"4_60","71",2,2,"FSS","strong",10,1,"Fast",0,0,1,"NC",1,1,2.715,100
"4_60","71",2,2,"FSS","strong",11,7,"Slow",NA,NA,0,"C",1,0,5.566,100
"4_60","71",2,2,"FSS","strong",12,17,"Slow",NA,NA,0,"NC",1,1,3.098,100
"4_60","71",2,2,"FSS","strong",13,4,"Slow",NA,NA,0,"NC",1,1,3.954,100
"4_60","71",2,2,"FSS","strong",14,11,"Slow",NA,NA,0,"NC",2,0,6.756,0
"4_60","71",2,2,"FSS","strong",15,10,"Slow",NA,NA,0,"NC",1,1,3.904,100
"4_60","71",2,2,"FSS","strong",16,14,"Slow",NA,NA,0,"C",1,0,4.282,100
"4_60","71",2,2,"FSS","strong",17,12,"Slow",NA,NA,0,"C",1,0,3.447,100
"4_60","71",2,2,"FSS","strong",18,8,"Slow",NA,NA,0,"C",1,0,3.982,0
"4_60","71",2,2,"FSS","strong",19,13,"Slow",NA,NA,0,"NC",1,1,3.819,100
"4_60","71",2,2,"FSS","strong",20,9,"Slow",NA,NA,0,"C",1,0,5.153,100
"4_61","49",1,4,"SFS","strong",1,7,"Slow",NA,NA,0,"C",1,0,4.816,100
"4_61","49",1,4,"SFS","strong",2,8,"Slow",NA,NA,0,"NC",1,1,3.681,100
"4_61","49",1,4,"SFS","strong",3,6,"Slow",NA,NA,0,"C",1,0,4.1,100
"4_61","49",1,4,"SFS","strong",4,14,"Slow",NA,NA,0,"NC",1,1,3.731,100
"4_61","49",1,4,"SFS","strong",5,17,"Slow",NA,NA,0,"C",1,0,3.999,100
"4_61","49",1,4,"SFS","strong",6,15,"Slow",NA,NA,0,"NC",1,1,5.784,100
"4_61","49",1,4,"SFS","strong",7,12,"Slow",NA,NA,0,"NC",1,1,4.149,100
"4_61","49",1,4,"SFS","strong",8,2,"Slow",NA,NA,0,"C",3,1,6.865,100
"4_61","49",1,4,"SFS","strong",9,1,"Slow",NA,NA,0,"C",3,1,7.199,100
"4_61","49",1,4,"SFS","strong",10,9,"Slow",NA,NA,0,"NC",1,1,6.313,100
"4_61","49",1,4,"SFS","strong",11,3,"Fast",1,0,1,"C",NA,1,5.085,NA
"4_61","49",1,4,"SFS","strong",12,13,"Fast",0,1,0,"NC",1,1,2.451,100
"4_61","49",1,4,"SFS","strong",13,5,"Fast",0,0,1,"C",3,1,4.5,100
"4_61","49",1,4,"SFS","strong",14,10,"Fast",0,1,0,"NC",1,1,2.916,100
"4_61","49",1,4,"SFS","strong",15,16,"Fast",0,1,0,"NC",1,1,2.599,100
"4_61","49",1,4,"SFS","strong",16,18,"Fast",0,1,0,"C",1,0,3.6,100
"4_61","49",1,4,"SFS","strong",17,4,"Fast",0,1,0,"NC",1,1,3.697,75
"4_61","49",1,4,"SFS","strong",18,20,"Fast",0,1,0,"C",1,0,2.115,100
"4_61","49",1,4,"SFS","strong",19,19,"Fast",0,1,0,"NC",1,1,2.599,100
"4_61","49",1,4,"SFS","strong",20,11,"Fast",0,1,0,"C",1,0,3.181,100
"4_62","31",2,2,"SFW","weak",1,17,"Slow",NA,NA,0,"C",3,1,8.159,100
"4_62","31",2,2,"SFW","weak",2,12,"Slow",NA,NA,0,"C",3,1,3.497,100
"4_62","31",2,2,"SFW","weak",3,7,"Slow",NA,NA,0,"NC",1,1,6.694,100
"4_62","31",2,2,"SFW","weak",4,18,"Slow",NA,NA,0,"C",3,1,3.497,100
"4_62","31",2,2,"SFW","weak",5,5,"Slow",NA,NA,0,"NC",1,1,4.697,100
"4_62","31",2,2,"SFW","weak",6,2,"Slow",NA,NA,0,"C",3,1,3.464,100
"4_62","31",2,2,"SFW","weak",7,3,"Slow",NA,NA,0,"C",3,1,8.392,100
"4_62","31",2,2,"SFW","weak",8,10,"Slow",NA,NA,0,"NC",1,1,14.987,100
"4_62","31",2,2,"SFW","weak",9,13,"Slow",NA,NA,0,"NC",1,1,5.129,50
"4_62","31",2,2,"SFW","weak",10,6,"Slow",NA,NA,0,"NC",1,1,3.363,100
"4_62","31",2,2,"SFW","weak",11,20,"Fast",1,1,1,"C",NA,1,5.063,NA
"4_62","31",2,2,"SFW","weak",12,16,"Fast",0,1,0,"NC",1,1,3.829,100
"4_62","31",2,2,"SFW","weak",13,8,"Fast",0,1,0,"C",3,1,3.896,100
"4_62","31",2,2,"SFW","weak",14,14,"Fast",0,1,0,"NC",1,1,2.931,100
"4_62","31",2,2,"SFW","weak",15,15,"Fast",1,0,1,"C",NA,1,5.062,NA
"4_62","31",2,2,"SFW","weak",16,4,"Fast",0,1,0,"C",3,1,2.498,100
"4_62","31",2,2,"SFW","weak",17,9,"Fast",0,1,0,"C",3,1,2.831,100
"4_62","31",2,2,"SFW","weak",18,11,"Fast",0,1,0,"NC",1,1,3.664,100
"4_62","31",2,2,"SFW","weak",19,1,"Fast",0,0,1,"NC",1,1,3.496,100
"4_62","31",2,2,"SFW","weak",20,19,"Fast",0,0,1,"NC",1,1,4.363,100
"4_63","63",1,3,"SFS","strong",1,9,"Slow",NA,NA,0,"NC",1,1,9.244,100
"4_63","63",1,3,"SFS","strong",2,18,"Slow",NA,NA,0,"C",1,0,7.25,90
"4_63","63",1,3,"SFS","strong",3,14,"Slow",NA,NA,0,"C",1,0,3.537,100
"4_63","63",1,3,"SFS","strong",4,13,"Slow",NA,NA,0,"NC",1,1,9.725,100
"4_63","63",1,3,"SFS","strong",5,1,"Slow",NA,NA,0,"C",1,0,5.736,95
"4_63","63",1,3,"SFS","strong",6,8,"Slow",NA,NA,0,"NC",4,0,9.433,100
"4_63","63",1,3,"SFS","strong",7,12,"Slow",NA,NA,0,"C",1,0,2.49,100
"4_63","63",1,3,"SFS","strong",8,5,"Slow",NA,NA,0,"C",1,0,3.843,100
"4_63","63",1,3,"SFS","strong",9,16,"Slow",NA,NA,0,"NC",1,1,2.62,100
"4_63","63",1,3,"SFS","strong",10,4,"Slow",NA,NA,0,"NC",1,1,6.682,50
"4_63","63",1,3,"SFS","strong",11,20,"Fast",0,1,0,"NC",1,1,3.668,100
"4_63","63",1,3,"SFS","strong",12,19,"Fast",1,0,1,"NC",NA,1,5.008,NA
"4_63","63",1,3,"SFS","strong",13,17,"Fast",0,1,0,"NC",3,0,4.964,100
"4_63","63",1,3,"SFS","strong",14,15,"Fast",0,1,0,"NC",1,1,3.436,100
"4_63","63",1,3,"SFS","strong",15,10,"Fast",0,1,0,"C",2,0,4.513,100
"4_63","63",1,3,"SFS","strong",16,3,"Fast",0,1,0,"C",1,0,2.533,100
"4_63","63",1,3,"SFS","strong",17,2,"Fast",0,0,1,"C",3,1,4.44,34
"4_63","63",1,3,"SFS","strong",18,11,"Fast",0,1,0,"NC",1,1,3.406,100
"4_63","63",1,3,"SFS","strong",19,6,"Fast",0,1,0,"C",1,0,2.417,100
"4_63","63",1,3,"SFS","strong",20,7,"Fast",0,1,0,"C",1,0,3.232,100
"4_64","39",1,2,"FSW","weak",1,5,"Fast",1,1,1,"C",NA,0,5.033,NA
"4_64","39",1,2,"FSW","weak",2,9,"Fast",0,1,0,"C",2,0,4.367,0
"4_64","39",1,2,"FSW","weak",3,17,"Fast",0,0,1,"NC",1,1,3.199,100
"4_64","39",1,2,"FSW","weak",4,18,"Fast",0,1,0,"C",2,0,4.133,80
"4_64","39",1,2,"FSW","weak",5,6,"Fast",0,1,0,"NC",1,1,3.8,50
"4_64","39",1,2,"FSW","weak",6,11,"Fast",0,1,0,"NC",1,1,4.017,100
"4_64","39",1,2,"FSW","weak",7,3,"Fast",0,1,0,"C",2,0,3.85,80
"4_64","39",1,2,"FSW","weak",8,20,"Fast",0,1,0,"C",1,0,3.117,100
"4_64","39",1,2,"FSW","weak",9,13,"Fast",0,1,0,"NC",1,1,3.534,100
"4_64","39",1,2,"FSW","weak",10,16,"Fast",0,1,0,"NC",1,1,4.033,100
"4_64","39",1,2,"FSW","weak",11,4,"Slow",NA,NA,0,"C",3,1,8.366,100
"4_64","39",1,2,"FSW","weak",12,14,"Slow",NA,NA,0,"C",1,0,3.1,100
"4_64","39",1,2,"FSW","weak",13,10,"Slow",NA,NA,0,"C",1,0,6.817,100
"4_64","39",1,2,"FSW","weak",14,15,"Slow",NA,NA,0,"NC",1,1,2.816,100
"4_64","39",1,2,"FSW","weak",15,12,"Slow",NA,NA,0,"NC",1,1,3.233,100
"4_64","39",1,2,"FSW","weak",16,19,"Slow",NA,NA,0,"NC",1,1,4.866,100
"4_64","39",1,2,"FSW","weak",17,8,"Slow",NA,NA,0,"NC",1,1,5.433,100
"4_64","39",1,2,"FSW","weak",18,2,"Slow",NA,NA,0,"C",3,1,8.867,100
"4_64","39",1,2,"FSW","weak",19,1,"Slow",NA,NA,0,"NC",1,1,4.383,100
"4_64","39",1,2,"FSW","weak",20,7,"Slow",NA,NA,0,"C",3,1,11.35,99
"4_65","25",1,3,"SFW","weak",1,12,"Slow",NA,NA,0,"NC",1,1,5.498,100
"4_65","25",1,3,"SFW","weak",2,1,"Slow",NA,NA,0,"NC",1,1,4.614,100
"4_65","25",1,3,"SFW","weak",3,17,"Slow",NA,NA,0,"NC",1,1,6.732,100
"4_65","25",1,3,"SFW","weak",4,3,"Slow",NA,NA,0,"NC",1,1,5.548,95
"4_65","25",1,3,"SFW","weak",5,8,"Slow",NA,NA,0,"C",3,1,12.128,90
"4_65","25",1,3,"SFW","weak",6,20,"Slow",NA,NA,0,"C",1,0,4.231,100
"4_65","25",1,3,"SFW","weak",7,13,"Slow",NA,NA,0,"C",3,1,5.414,100
"4_65","25",1,3,"SFW","weak",8,15,"Slow",NA,NA,0,"C",3,1,7.98,100
"4_65","25",1,3,"SFW","weak",9,5,"Slow",NA,NA,0,"NC",1,1,7.446,100
"4_65","25",1,3,"SFW","weak",10,6,"Slow",NA,NA,0,"C",3,1,9.146,80
"4_65","25",1,3,"SFW","weak",11,14,"Fast",0,1,0,"NC",1,1,4.981,75
"4_65","25",1,3,"SFW","weak",12,4,"Fast",0,1,0,"NC",1,1,4.148,60
"4_65","25",1,3,"SFW","weak",13,9,"Fast",0,1,0,"NC",1,1,4.665,100
"4_65","25",1,3,"SFW","weak",14,16,"Fast",0,1,0,"C",3,1,4.598,40
"4_65","25",1,3,"SFW","weak",15,11,"Fast",0,0,1,"C",3,1,4.815,60
"4_65","25",1,3,"SFW","weak",16,7,"Fast",0,1,0,"C",3,1,4.498,100
"4_65","25",1,3,"SFW","weak",17,19,"Fast",1,1,1,"NC",NA,1,5.048,NA
"4_65","25",1,3,"SFW","weak",18,10,"Fast",0,1,0,"C",3,1,4.864,25
"4_65","25",1,3,"SFW","weak",19,2,"Fast",0,0,1,"NC",1,1,4.415,30
"4_65","25",1,3,"SFW","weak",20,18,"Fast",0,1,0,"C",3,1,4.014,100
"4_66","68",1,3,"FSS","strong",1,10,"Fast",0,1,0,"C",1,0,2.451,100
"4_66","68",1,3,"FSS","strong",2,16,"Fast",0,0,1,"NC",1,1,2.083,100
"4_66","68",1,3,"FSS","strong",3,1,"Fast",0,1,0,"C",1,0,3.132,100
"4_66","68",1,3,"FSS","strong",4,4,"Fast",0,0,1,"C",3,1,4.109,100
"4_66","68",1,3,"FSS","strong",5,7,"Fast",0,1,0,"NC",1,1,2.649,100
"4_66","68",1,3,"FSS","strong",6,14,"Fast",0,1,0,"NC",1,1,2.549,100
"4_66","68",1,3,"FSS","strong",7,20,"Fast",0,0,1,"C",1,0,2.2,100
"4_66","68",1,3,"FSS","strong",8,2,"Fast",0,0,1,"C",3,1,4.534,100
"4_66","68",1,3,"FSS","strong",9,19,"Fast",0,1,0,"NC",1,1,2.984,100
"4_66","68",1,3,"FSS","strong",10,12,"Fast",0,1,0,"NC",1,1,2.765,100
"4_66","68",1,3,"FSS","strong",11,15,"Slow",NA,NA,0,"NC",1,1,2.95,100
"4_66","68",1,3,"FSS","strong",12,5,"Slow",NA,NA,0,"C",3,1,5.998,100
"4_66","68",1,3,"FSS","strong",13,8,"Slow",NA,NA,0,"NC",1,1,7.332,100
"4_66","68",1,3,"FSS","strong",14,3,"Slow",NA,NA,0,"NC",1,1,2.167,100
"4_66","68",1,3,"FSS","strong",15,13,"Slow",NA,NA,0,"NC",1,1,3.085,100
"4_66","68",1,3,"FSS","strong",16,17,"Slow",NA,NA,0,"C",1,0,6.165,0
"4_66","68",1,3,"FSS","strong",17,9,"Slow",NA,NA,0,"C",3,1,5.116,100
"4_66","68",1,3,"FSS","strong",18,18,"Slow",NA,NA,0,"C",3,1,3.416,100
"4_66","68",1,3,"FSS","strong",19,6,"Slow",NA,NA,0,"C",1,0,3.733,0
"4_66","68",1,3,"FSS","strong",20,11,"Slow",NA,NA,0,"NC",1,1,9.815,100
"4_67","26",2,4,"SFW","weak",1,2,"Slow",NA,NA,0,"NC",1,1,9.783,50
"4_67","26",2,4,"SFW","weak",2,1,"Slow",NA,NA,0,"C",3,1,8.5,100
"4_67","26",2,4,"SFW","weak",3,8,"Slow",NA,NA,0,"NC",1,1,4.2,100
"4_67","26",2,4,"SFW","weak",4,4,"Slow",NA,NA,0,"NC",1,1,8.833,70
"4_67","26",2,4,"SFW","weak",5,12,"Slow",NA,NA,0,"C",1,0,2.999,100
"4_67","26",2,4,"SFW","weak",6,15,"Slow",NA,NA,0,"C",1,0,4.016,100
"4_67","26",2,4,"SFW","weak",7,10,"Slow",NA,NA,0,"C",1,0,9.6,50
"4_67","26",2,4,"SFW","weak",8,20,"Slow",NA,NA,0,"C",1,0,3.65,90
"4_67","26",2,4,"SFW","weak",9,19,"Slow",NA,NA,0,"NC",1,1,5.049,100
"4_67","26",2,4,"SFW","weak",10,7,"Slow",NA,NA,0,"NC",1,1,3.233,100
"4_67","26",2,4,"SFW","weak",11,5,"Fast",0,1,0,"NC",1,1,3.416,100
"4_67","26",2,4,"SFW","weak",12,16,"Fast",0,1,0,"C",1,0,2.75,100
"4_67","26",2,4,"SFW","weak",13,17,"Fast",0,1,0,"C",3,1,4.65,100
"4_67","26",2,4,"SFW","weak",14,18,"Fast",0,1,0,"C",1,0,3.983,70
"4_67","26",2,4,"SFW","weak",15,9,"Fast",0,1,0,"NC",1,1,2.682,100
"4_67","26",2,4,"SFW","weak",16,3,"Fast",0,1,0,"NC",4,0,2.566,100
"4_67","26",2,4,"SFW","weak",17,13,"Fast",0,1,0,"NC",1,1,2.867,90
"4_67","26",2,4,"SFW","weak",18,6,"Fast",0,1,0,"C",1,0,2.131,100
"4_67","26",2,4,"SFW","weak",19,11,"Fast",0,1,0,"NC",1,1,3.2,100
"4_67","26",2,4,"SFW","weak",20,14,"Fast",0,1,0,"C",1,0,2.017,80
"4_68","66",2,3,"SFW","weak",1,15,"Slow",NA,NA,0,"C",1,0,2.802,100
"4_68","66",2,3,"SFW","weak",2,19,"Slow",NA,NA,0,"C",4,0,4.882,100
"4_68","66",2,3,"SFW","weak",3,10,"Slow",NA,NA,0,"C",1,0,9.999,80
"4_68","66",2,3,"SFW","weak",4,5,"Slow",NA,NA,0,"NC",1,1,4.315,100
"4_68","66",2,3,"SFW","weak",5,11,"Slow",NA,NA,0,"NC",1,1,6.616,100
"4_68","66",2,3,"SFW","weak",6,12,"Slow",NA,NA,0,"C",1,0,2.683,100
"4_68","66",2,3,"SFW","weak",7,6,"Slow",NA,NA,0,"NC",1,1,4.667,100
"4_68","66",2,3,"SFW","weak",8,16,"Slow",NA,NA,0,"NC",1,1,3.082,100
"4_68","66",2,3,"SFW","weak",9,14,"Slow",NA,NA,0,"NC",1,1,2.65,100
"4_68","66",2,3,"SFW","weak",10,3,"Slow",NA,NA,0,"C",3,1,3.914,100
"4_68","66",2,3,"SFW","weak",11,8,"Fast",0,1,0,"C",2,0,2.137,50
"4_68","66",2,3,"SFW","weak",12,2,"Fast",0,1,0,"C",4,0,3.165,0
"4_68","66",2,3,"SFW","weak",13,1,"Fast",0,1,0,"NC",1,1,1.968,100
"4_68","66",2,3,"SFW","weak",14,7,"Fast",0,0,1,"C",3,1,4.884,100
"4_68","66",2,3,"SFW","weak",15,4,"Fast",0,1,0,"C",3,1,4.334,100
"4_68","66",2,3,"SFW","weak",16,13,"Fast",0,1,0,"NC",1,1,2.915,100
"4_68","66",2,3,"SFW","weak",17,17,"Fast",0,1,0,"C",1,0,2.983,10
"4_68","66",2,3,"SFW","weak",18,9,"Fast",0,1,0,"NC",1,1,4.572,100
"4_68","66",2,3,"SFW","weak",19,20,"Fast",0,1,0,"NC",2,0,1.568,0
"4_68","66",2,3,"SFW","weak",20,18,"Fast",0,1,0,"NC",1,1,3.631,90
"4_69","54",2,2,"FSW","weak",1,7,"Fast",0,1,0,"C",1,0,2.166,100
"4_69","54",2,2,"FSW","weak",2,12,"Fast",0,1,0,"NC",1,1,3.098,100
"4_69","54",2,2,"FSW","weak",3,5,"Fast",1,1,1,"C",NA,1,5.049,NA
"4_69","54",2,2,"FSW","weak",4,6,"Fast",0,0,1,"NC",1,1,2.465,100
"4_69","54",2,2,"FSW","weak",5,19,"Fast",1,1,1,"C",NA,1,5.049,NA
"4_69","54",2,2,"FSW","weak",6,8,"Fast",0,1,0,"NC",1,1,3.816,50
"4_69","54",2,2,"FSW","weak",7,15,"Fast",0,1,0,"NC",1,1,2.518,100
"4_69","54",2,2,"FSW","weak",8,4,"Fast",0,1,0,"C",1,0,2.85,100
"4_69","54",2,2,"FSW","weak",9,9,"Fast",1,1,1,"C",NA,0,5.019,NA
"4_69","54",2,2,"FSW","weak",10,18,"Fast",0,0,1,"NC",2,0,2.318,20
"4_69","54",2,2,"FSW","weak",11,2,"Slow",NA,NA,0,"NC",1,1,3.765,100
"4_69","54",2,2,"FSW","weak",12,10,"Slow",NA,NA,0,"NC",1,1,6.249,100
"4_69","54",2,2,"FSW","weak",13,3,"Slow",NA,NA,0,"C",1,0,3.765,100
"4_69","54",2,2,"FSW","weak",14,13,"Slow",NA,NA,0,"C",1,0,3.264,100
"4_69","54",2,2,"FSW","weak",15,1,"Slow",NA,NA,0,"C",3,1,4.701,100
"4_69","54",2,2,"FSW","weak",16,16,"Slow",NA,NA,0,"NC",1,1,3.049,100
"4_69","54",2,2,"FSW","weak",17,14,"Slow",NA,NA,0,"NC",1,1,2.334,100
"4_69","54",2,2,"FSW","weak",18,17,"Slow",NA,NA,0,"C",3,1,6.017,100
"4_69","54",2,2,"FSW","weak",19,11,"Slow",NA,NA,0,"C",3,1,6.166,100
"4_69","54",2,2,"FSW","weak",20,20,"Slow",NA,NA,0,"NC",1,1,3.082,100
"4_70","48",1,4,"FSS","strong",1,5,"Fast",0,0,1,"C",2,0,1.858,45
"4_70","48",1,4,"FSS","strong",2,14,"Fast",0,1,0,"NC",1,1,1.137,55
"4_70","48",1,4,"FSS","strong",3,9,"Fast",0,1,0,"C",2,0,0.969,44
"4_70","48",1,4,"FSS","strong",4,20,"Fast",0,1,0,"C",1,0,1.053,44
"4_70","48",1,4,"FSS","strong",5,13,"Fast",0,1,0,"NC",1,1,1.103,77
"4_70","48",1,4,"FSS","strong",6,3,"Fast",0,1,0,"NC",1,1,0.936,65
"4_70","48",1,4,"FSS","strong",7,6,"Fast",0,1,0,"NC",1,1,1.171,75
"4_70","48",1,4,"FSS","strong",8,7,"Fast",0,1,0,"C",2,0,1.086,34
"4_70","48",1,4,"FSS","strong",9,2,"Fast",0,1,0,"C",2,0,1.638,35
"4_70","48",1,4,"FSS","strong",10,8,"Fast",0,1,0,"NC",3,0,1.422,33
"4_70","48",1,4,"FSS","strong",11,19,"Slow",NA,NA,0,"C",1,0,1.24,36
"4_70","48",1,4,"FSS","strong",12,17,"Slow",NA,NA,0,"NC",1,1,0.787,41
"4_70","48",1,4,"FSS","strong",13,10,"Slow",NA,NA,0,"NC",2,0,2.023,36
"4_70","48",1,4,"FSS","strong",14,15,"Slow",NA,NA,0,"C",2,0,1.522,42
"4_70","48",1,4,"FSS","strong",15,4,"Slow",NA,NA,0,"NC",2,0,5.033,55
"4_70","48",1,4,"FSS","strong",16,16,"Slow",NA,NA,0,"C",1,0,1.741,63
"4_70","48",1,4,"FSS","strong",17,12,"Slow",NA,NA,0,"NC",2,0,1.188,45
"4_70","48",1,4,"FSS","strong",18,1,"Slow",NA,NA,0,"NC",1,1,1.222,35
"4_70","48",1,4,"FSS","strong",19,11,"Slow",NA,NA,0,"C",2,0,1.002,75
"4_70","48",1,4,"FSS","strong",20,18,"Slow",NA,NA,0,"C",2,0,1.204,41
"4_71","37",1,3,"SFW","weak",1,10,"Slow",NA,NA,0,"C",1,0,3.256,50
"4_71","37",1,3,"SFW","weak",2,20,"Slow",NA,NA,0,"NC",2,0,1.42,50
"4_71","37",1,3,"SFW","weak",3,7,"Slow",NA,NA,0,"NC",1,1,2.19,100
"4_71","37",1,3,"SFW","weak",4,11,"Slow",NA,NA,0,"C",1,0,5.339,10
"4_71","37",1,3,"SFW","weak",5,4,"Slow",NA,NA,0,"C",1,0,3.263,100
"4_71","37",1,3,"SFW","weak",6,16,"Slow",NA,NA,0,"NC",1,1,1.328,100
"4_71","37",1,3,"SFW","weak",7,1,"Slow",NA,NA,0,"C",1,0,2.16,50
"4_71","37",1,3,"SFW","weak",8,3,"Slow",NA,NA,0,"NC",1,1,3.158,100
"4_71","37",1,3,"SFW","weak",9,19,"Slow",NA,NA,0,"C",3,1,3.586,100
"4_71","37",1,3,"SFW","weak",10,13,"Slow",NA,NA,0,"NC",1,1,2.485,100
"4_71","37",1,3,"SFW","weak",11,14,"Fast",1,0,1,"C",NA,1,5.018,NA
"4_71","37",1,3,"SFW","weak",12,9,"Fast",0,1,0,"C",1,0,3.745,100
"4_71","37",1,3,"SFW","weak",13,12,"Fast",0,0,1,"NC",1,1,3.314,100
"4_71","37",1,3,"SFW","weak",14,17,"Fast",0,0,1,"C",2,0,4.925,10
"4_71","37",1,3,"SFW","weak",15,18,"Fast",0,1,0,"NC",1,1,2.173,100
"4_71","37",1,3,"SFW","weak",16,8,"Fast",0,1,0,"NC",1,1,1.472,100
"4_71","37",1,3,"SFW","weak",17,2,"Fast",0,0,1,"NC",1,1,1.366,100
"4_71","37",1,3,"SFW","weak",18,6,"Fast",0,1,0,"NC",1,1,3.57,100
"4_71","37",1,3,"SFW","weak",19,5,"Fast",0,1,0,"C",2,0,1.712,50
"4_71","37",1,3,"SFW","weak",20,15,"Fast",0,0,1,"C",1,0,1.103,100
"4_72","50",2,2,"SFS","strong",1,18,"Slow",NA,NA,0,"NC",4,0,7.849,100
"4_72","50",2,2,"SFS","strong",2,12,"Slow",NA,NA,0,"NC",1,1,3.785,100
"4_72","50",2,2,"SFS","strong",3,6,"Slow",NA,NA,0,"NC",1,1,4.433,100
"4_72","50",2,2,"SFS","strong",4,1,"Slow",NA,NA,0,"NC",1,1,5.115,100
"4_72","50",2,2,"SFS","strong",5,15,"Slow",NA,NA,0,"C",3,1,12.983,100
"4_72","50",2,2,"SFS","strong",6,16,"Slow",NA,NA,0,"C",3,1,24.866,80
"4_72","50",2,2,"SFS","strong",7,19,"Slow",NA,NA,0,"C",3,1,11.767,100
"4_72","50",2,2,"SFS","strong",8,5,"Slow",NA,NA,0,"C",3,1,4.799,100
"4_72","50",2,2,"SFS","strong",9,11,"Slow",NA,NA,0,"C",1,0,18.7,60
"4_72","50",2,2,"SFS","strong",10,2,"Slow",NA,NA,0,"NC",3,0,5.666,50
"4_72","50",2,2,"SFS","strong",11,10,"Fast",0,1,0,"NC",1,1,3.65,0
"4_72","50",2,2,"SFS","strong",12,8,"Fast",0,1,0,"NC",1,1,3.948,100
"4_72","50",2,2,"SFS","strong",13,20,"Fast",0,1,0,"NC",3,0,4.684,100
"4_72","50",2,2,"SFS","strong",14,7,"Fast",0,1,0,"C",3,1,4.417,0
"4_72","50",2,2,"SFS","strong",15,13,"Fast",0,1,0,"C",1,0,3.9,50
"4_72","50",2,2,"SFS","strong",16,14,"Fast",0,0,1,"NC",1,1,3.633,100
"4_72","50",2,2,"SFS","strong",17,9,"Fast",0,1,0,"C",1,0,2.716,100
"4_72","50",2,2,"SFS","strong",18,3,"Fast",0,1,0,"NC",1,1,3.701,85
"4_72","50",2,2,"SFS","strong",19,17,"Fast",1,1,1,"C",NA,1,5.051,NA
"4_72","50",2,2,"SFS","strong",20,4,"Fast",0,1,0,"C",4,0,2.783,100
"4_73","52",2,3,"FSW","weak",1,13,"Fast",0,0,1,"NC",1,1,2.234,100
"4_73","52",2,3,"FSW","weak",2,6,"Fast",0,1,0,"NC",1,1,2.517,100
"4_73","52",2,3,"FSW","weak",3,1,"Fast",0,1,0,"C",2,0,2.217,100
"4_73","52",2,3,"FSW","weak",4,15,"Fast",0,1,0,"NC",1,1,2.582,100
"4_73","52",2,3,"FSW","weak",5,7,"Fast",0,1,0,"C",1,0,3.233,50
"4_73","52",2,3,"FSW","weak",6,5,"Fast",0,1,0,"NC",1,1,4.85,10
"4_73","52",2,3,"FSW","weak",7,8,"Fast",0,1,0,"C",2,0,4.468,100
"4_73","52",2,3,"FSW","weak",8,10,"Fast",0,0,1,"NC",2,0,3.333,100
"4_73","52",2,3,"FSW","weak",9,20,"Fast",0,1,0,"C",1,0,2.883,100
"4_73","52",2,3,"FSW","weak",10,14,"Fast",0,1,0,"C",1,0,2.984,NA
"4_73","52",2,3,"FSW","weak",11,12,"Slow",NA,NA,0,"C",1,0,27.969,10
"4_73","52",2,3,"FSW","weak",12,3,"Slow",NA,NA,0,"NC",4,0,3.032,100
"4_73","52",2,3,"FSW","weak",13,17,"Slow",NA,NA,0,"C",1,0,3.284,100
"4_73","52",2,3,"FSW","weak",14,18,"Slow",NA,NA,0,"C",4,0,6.534,100
"4_73","52",2,3,"FSW","weak",15,9,"Slow",NA,NA,0,"C",4,0,6.452,100
"4_73","52",2,3,"FSW","weak",16,16,"Slow",NA,NA,0,"NC",2,0,47.103,60
"4_73","52",2,3,"FSW","weak",17,4,"Slow",NA,NA,0,"C",1,0,28.035,60
"4_73","52",2,3,"FSW","weak",18,11,"Slow",NA,NA,0,"NC",3,0,26.367,100
"4_73","52",2,3,"FSW","weak",19,2,"Slow",NA,NA,0,"NC",1,1,14.751,90
"4_73","52",2,3,"FSW","weak",20,19,"Slow",NA,NA,0,"NC",1,1,9.368,100
"4_74","31",1,4,"SFS","strong",1,15,"Slow",NA,NA,0,"NC",1,1,8.55,100
"4_74","31",1,4,"SFS","strong",2,7,"Slow",NA,NA,0,"C",1,0,9.343,80
"4_74","31",1,4,"SFS","strong",3,3,"Slow",NA,NA,0,"C",2,0,9.106,80
"4_74","31",1,4,"SFS","strong",4,11,"Slow",NA,NA,0,"NC",4,0,7.556,10
"4_74","31",1,4,"SFS","strong",5,19,"Slow",NA,NA,0,"NC",1,1,7.91,70
"4_74","31",1,4,"SFS","strong",6,20,"Slow",NA,NA,0,"C",1,0,7.739,100
"4_74","31",1,4,"SFS","strong",7,8,"Slow",NA,NA,0,"C",1,0,10.091,40
"4_74","31",1,4,"SFS","strong",8,9,"Slow",NA,NA,0,"C",4,0,7.889,1
"4_74","31",1,4,"SFS","strong",9,13,"Slow",NA,NA,0,"NC",1,1,8.19,80
"4_74","31",1,4,"SFS","strong",10,4,"Slow",NA,NA,0,"NC",1,1,5.487,10
"4_74","31",1,4,"SFS","strong",11,16,"Fast",1,0,1,"C",NA,1,5.038,NA
"4_74","31",1,4,"SFS","strong",12,17,"Fast",0,0,1,"NC",2,0,3.769,10
"4_74","31",1,4,"SFS","strong",13,18,"Fast",0,0,1,"C",1,0,2.752,5
"4_74","31",1,4,"SFS","strong",14,10,"Fast",0,0,1,"C",4,0,2.719,6
"4_74","31",1,4,"SFS","strong",15,5,"Fast",0,0,1,"C",2,0,3.553,30
"4_74","31",1,4,"SFS","strong",16,6,"Fast",0,1,0,"NC",2,0,4.738,50
"4_74","31",1,4,"SFS","strong",17,12,"Fast",0,1,0,"NC",2,0,2.618,50
"4_74","31",1,4,"SFS","strong",18,2,"Fast",0,1,0,"C",1,0,2.835,NA
"4_74","31",1,4,"SFS","strong",19,14,"Fast",0,1,0,"NC",4,0,2.384,20
"4_74","31",1,4,"SFS","strong",20,1,"Fast",0,0,1,"NC",2,0,3.619,30
"4_75","54",2,2,"FSS","strong",1,8,"Fast",0,1,0,"NC",1,1,4.215,0
"4_75","54",2,2,"FSS","strong",2,10,"Fast",0,1,0,"C",2,0,4.613,0
"4_75","54",2,2,"FSS","strong",3,15,"Fast",0,1,0,"C",1,0,2.681,100
"4_75","54",2,2,"FSS","strong",4,12,"Fast",0,1,0,"NC",1,1,3.631,100
"4_75","54",2,2,"FSS","strong",5,5,"Fast",0,1,0,"NC",1,1,3.882,100
"4_75","54",2,2,"FSS","strong",6,1,"Fast",0,1,0,"NC",1,1,4.029,100
"4_75","54",2,2,"FSS","strong",7,4,"Fast",0,1,0,"C",1,0,2.931,100
"4_75","54",2,2,"FSS","strong",8,18,"Fast",0,0,1,"C",1,0,3.448,100
"4_75","54",2,2,"FSS","strong",9,16,"Fast",0,1,0,"C",1,0,3.563,100
